eval_corrans,eval_pic,flanker_type,trials.thisN,flanker_resp.keys,flanker_resp.corr,flanker_resp.rt,eval_resp.keys,eval_resp.corr,eval_resp.rt,flanker_stimulus,participant,years,date,sex,block,pic_valence,flanker_acc
g,pictures/1463.jpg,congr,0,None,0,,g,1,0.600038032746,VVVVV,1,24,2017_03_20_1739,f,1,positive,Error
b,pictures/9610.jpg,congr,1,num_1,1,0.566840132466,b,1,0.750083748717,PPPPP,1,24,2017_03_20_1739,f,1,negative,Correct
g,pictures/8540.jpg,noncongr,2,num_2,1,0.766801871825,g,1,0.700143492082,PPMPP,1,24,2017_03_20_1739,f,1,positive,Correct
b,pictures/2457.jpg,noncongr,3,None,0,,b,1,1.00014027022,RRVRR,1,24,2017_03_20_1739,f,1,negative,Error
b,pictures/2692.jpg,congr,4,num_3,1,0.733492211439,b,1,0.733501334675,XXXXX,1,24,2017_03_20_1739,f,1,negative,Correct
g,pictures/2398.jpg,congr,5,num_1,1,0.583523473004,b,0,0.850149864098,RRRRR,1,24,2017_03_20_1739,f,1,positive,Correct
b,pictures/9901.jpg,noncongr,6,None,0,,b,1,0.916808243841,MMWMM,1,24,2017_03_20_1739,f,1,negative,Error
b,pictures/2053.jpg,congr,7,num_2,1,0.800154867582,b,1,0.866894501727,VVVVV,1,24,2017_03_20_1739,f,1,negative,Correct
g,pictures/1340.jpg,congr,8,num_1,1,0.500036065467,g,1,0.983489716891,PPPPP,1,24,2017_03_20_1739,f,1,positive,Correct
b,pictures/6244.jpg,congr,9,num_1,1,0.733476530761,b,1,0.933467635652,PPPPP,1,24,2017_03_20_1739,f,1,negative,Correct
g,pictures/4640.jpg,congr,10,None,0,,g,1,0.883492026012,XXXXX,1,24,2017_03_20_1739,f,1,positive,Error
g,pictures/8116.jpg,congr,11,num_3,1,0.716819419758,b,0,1.71679005423,XXXXX,1,24,2017_03_20_1739,f,1,positive,Correct
g,pictures/1660.jpg,congr,12,None,0,,g,1,0.849859059555,VVVVV,1,24,2017_03_20_1739,f,1,positive,Error
g,pictures/8130.jpg,congr,13,num_3,1,0.766824109713,g,1,1.16679890687,XXXXX,1,24,2017_03_20_1739,f,1,positive,Correct
b,pictures/6241.jpg,congr,14,None,0,,g,0,1.43366392865,VVVVV,1,24,2017_03_20_1739,f,1,negative,Error
g,pictures/7289.jpg,congr,15,num_1,1,0.650169593282,g,1,0.983634263743,PPPPP,1,24,2017_03_20_1739,f,1,positive,Correct
g,pictures/8250.jpg,noncongr,16,num_3,1,0.733481377596,g,1,1.13339259662,PPWPP,1,24,2017_03_20_1739,f,1,positive,Correct
g,pictures/8540.jpg,congr,17,num_1,1,0.733477100963,g,1,0.6834915129,PPPPP,1,24,2017_03_20_1739,f,1,positive,Correct
g,pictures/5628.jpg,congr,18,num_3,1,0.633486252744,g,1,0.733488790225,XXXXX,1,24,2017_03_20_1739,f,1,positive,Correct
b,pictures/9429.jpg,congr,19,num_3,1,0.700180555228,b,1,1.01679624082,XXXXX,1,24,2017_03_20_1739,f,1,negative,Correct
b,pictures/2900.jpg,noncongr,20,num_3,1,0.750174981542,b,1,0.766822113888,MMWMM,1,24,2017_03_20_1739,f,1,negative,Correct
b,pictures/9301.jpg,congr,21,num_1,1,0.566813903162,b,1,0.733475105371,RRRRR,1,24,2017_03_20_1739,f,1,negative,Correct
g,pictures/5628.jpg,noncongr,22,num_1,1,0.600153784268,g,1,0.916804252192,XXPXX,1,24,2017_03_20_1739,f,1,positive,Correct
g,pictures/8503.jpg,congr,23,num_1,1,0.550188438268,b,0,1.10014565894,PPPPP,1,24,2017_03_20_1739,f,1,positive,Correct
g,pictures/8033.jpg,congr,24,num_1,0,0.816851322772,g,1,1.18331717281,VVVVV,1,24,2017_03_20_1739,f,1,positive,Error
b,pictures/6836.jpg,noncongr,25,None,0,,b,1,1.26678291243,MMWMM,1,24,2017_03_20_1739,f,1,negative,Error
g,pictures/2056.jpg,noncongr,26,num_1,1,0.616855371278,g,1,0.683480108855,WWPWW,1,24,2017_03_20_1739,f,1,positive,Correct
b,pictures/9471.jpg,noncongr,27,num_1,1,0.666812163778,b,1,0.633490814362,MMPMM,1,24,2017_03_20_1739,f,1,negative,Correct
g,pictures/2344.jpg,congr,28,num_3,1,0.683496074751,b,0,0.833449987695,WWWWW,1,24,2017_03_20_1739,f,1,positive,Correct
b,pictures/2710.jpg,congr,29,num_1,1,0.533358840505,b,1,1.01679510041,PPPPP,1,24,2017_03_20_1739,f,1,negative,Correct
g,pictures/4520.jpg,noncongr,30,num_3,1,0.650149350986,g,1,0.883487464394,RRXRR,1,24,2017_03_20_1739,f,1,positive,Correct
b,pictures/2276.jpg,noncongr,31,None,0,,g,0,1.41696604807,PPMPP,1,24,2017_03_20_1739,f,1,negative,Error
b,pictures/9342.jpg,congr,32,num_3,1,0.683550528949,b,1,1.41681180755,WWWWW,1,24,2017_03_20_1739,f,1,negative,Correct
g,pictures/1999.jpg,noncongr,33,num_1,1,0.600182009395,g,1,0.883488605032,VVRVV,1,24,2017_03_20_1739,f,1,positive,Correct
g,pictures/4007.jpg,congr,34,num_1,1,0.600168609526,g,1,0.766606576741,RRRRR,1,24,2017_03_20_1739,f,1,positive,Correct
g,pictures/5199.jpg,congr,35,num_2,1,0.783504314022,g,1,0.850152715109,MMMMM,1,24,2017_03_20_1739,f,1,positive,Correct
g,pictures/2352.jpg,noncongr,36,num_3,1,0.616846818244,g,1,0.650153057184,MMXMM,1,24,2017_03_20_1739,f,1,positive,Correct
b,pictures/9427.jpg,noncongr,37,num_3,1,0.750189521816,b,1,0.833454264328,PPWPP,1,24,2017_03_20_1739,f,1,negative,Correct
g,pictures/5890.jpg,congr,38,num_1,1,0.683494078694,g,1,0.700148338918,RRRRR,1,24,2017_03_20_1739,f,1,positive,Correct
g,pictures/4542.jpg,noncongr,39,num_1,1,0.66684666113,g,1,0.650107441004,WWPWW,1,24,2017_03_20_1739,f,1,positive,Correct
b,pictures/3017.jpg,congr,40,num_2,1,0.750162152108,b,1,0.833461106755,MMMMM,1,24,2017_03_20_1739,f,1,negative,Correct
g,pictures/7501.jpg,congr,41,num_3,1,0.766805863008,b,0,0.933484456735,XXXXX,1,24,2017_03_20_1739,f,1,positive,Correct
b,pictures/1271.jpg,noncongr,42,num_2,1,0.666822712868,b,1,0.816820816835,RRMRR,1,24,2017_03_20_1739,f,1,negative,Correct
g,pictures/4650.jpg,noncongr,43,num_3,1,0.716831964441,g,1,0.700158317341,VVWVV,1,24,2017_03_20_1739,f,1,positive,Correct
g,pictures/8001.jpg,noncongr,44,num_2,1,0.700157747138,g,1,1.05014923704,RRVRR,1,24,2017_03_20_1739,f,1,positive,Correct
g,pictures/2362.jpg,congr,45,num_1,1,0.550166485598,g,1,0.800124361645,RRRRR,1,24,2017_03_20_1739,f,1,positive,Correct
g,pictures/7352.jpg,congr,46,num_1,1,0.583512353944,g,1,0.716785492608,RRRRR,1,24,2017_03_20_1739,f,1,positive,Correct
b,pictures/9041.jpg,noncongr,47,num_1,1,0.750143620418,g,0,0.93348246091,MMRMM,1,24,2017_03_20_1739,f,1,negative,Correct
g,pictures/1590.jpg,congr,48,None,0,,g,1,0.883454677649,VVVVV,1,24,2017_03_20_1739,f,1,positive,Error
g,pictures/7230.jpg,congr,49,num_1,1,0.650181282545,g,1,0.616828856524,RRRRR,1,24,2017_03_20_1739,f,1,positive,Correct
b,pictures/9290.jpg,congr,50,num_2,1,0.766875713365,b,1,0.633484827355,VVVVV,1,24,2017_03_20_1739,f,1,negative,Correct
b,pictures/3220.jpg,noncongr,51,num_3,1,0.600168324541,b,1,0.683447607094,PPXPP,1,24,2017_03_20_1739,f,1,negative,Correct
b,pictures/9435.jpg,congr,52,num_2,1,0.666981514776,b,1,0.700162878959,MMMMM,1,24,2017_03_20_1739,f,1,negative,Correct
b,pictures/3216.jpg,noncongr,53,num_2,1,0.566817324143,b,1,0.666822142666,WWMWW,1,24,2017_03_20_1739,f,1,negative,Correct
b,pictures/2700.jpg,congr,54,num_3,1,0.600188566605,g,0,0.916803112021,WWWWW,1,24,2017_03_20_1739,f,1,negative,Correct
g,pictures/5814.jpg,congr,55,num_3,1,0.683476687642,g,1,0.750151888235,XXXXX,1,24,2017_03_20_1739,f,1,positive,Correct
b,pictures/9330.jpg,congr,56,num_2,1,0.800123506458,b,1,1.06679180753,VVVVV,1,24,2017_03_20_1739,f,1,negative,Correct
b,pictures/9001.jpg,congr,57,num_3,1,0.550170477014,b,1,0.916778878309,WWWWW,1,24,2017_03_20_1739,f,1,negative,Correct
b,pictures/6555.jpg,noncongr,58,num_3,1,0.783523986116,b,1,1.25012437603,VVXVV,1,24,2017_03_20_1739,f,1,negative,Correct
g,pictures/4612.jpg,congr,59,num_1,1,0.600207953714,g,1,0.683492938289,PPPPP,1,24,2017_03_20_1739,f,1,positive,Correct
g,pictures/2303.jpg,noncongr,60,num_3,1,0.666820717044,g,1,0.700154611142,VVWVV,1,24,2017_03_20_1739,f,1,positive,Correct
g,pictures/4610.jpg,noncongr,61,num_2,1,0.600169464946,g,1,0.566843553679,RRMRR,1,24,2017_03_20_1739,f,1,positive,Correct
b,pictures/3160.jpg,noncongr,62,num_2,1,0.583591612522,b,1,1.40012789704,XXVXX,1,24,2017_03_20_1739,f,1,negative,Correct
b,pictures/7359.jpg,noncongr,63,num_2,1,0.716828542994,b,1,1.19994121185,PPVPP,1,24,2017_03_20_1739,f,1,negative,Correct
b,pictures/9621.jpg,congr,64,None,0,,b,1,0.750139058568,XXXXX,1,24,2017_03_20_1739,f,1,negative,Error
g,pictures/8510.jpg,congr,65,num_1,1,0.650146784959,b,0,1.3334652409,PPPPP,1,24,2017_03_20_1739,f,1,positive,Correct
g,pictures/2605.jpg,congr,66,num_2,1,0.516840859549,b,0,0.983481163625,MMMMM,1,24,2017_03_20_1739,f,1,positive,Correct
g,pictures/7451.jpg,noncongr,67,num_1,1,0.650145074353,g,1,1.05011188844,WWPWW,1,24,2017_03_20_1739,f,1,positive,Correct
b,pictures/1220.jpg,congr,68,num_2,1,0.683473266428,b,1,0.666808172595,MMMMM,1,24,2017_03_20_1739,f,1,negative,Correct
b,pictures/9530.jpg,congr,69,num_3,1,0.700132943224,b,1,0.916800545994,XXXXX,1,24,2017_03_20_1739,f,1,negative,Correct
g,pictures/4628.jpg,noncongr,70,num_3,1,0.650163891027,g,1,1.15013238718,RRXRR,1,24,2017_03_20_1739,f,1,positive,Correct
g,pictures/8118.jpg,noncongr,71,num_3,1,0.783455561381,b,0,0.900138303172,RRWRR,1,24,2017_03_20_1739,f,1,positive,Correct
b,pictures/9326.jpg,congr,72,num_2,1,0.63349395059,b,1,0.783446723362,MMMMM,1,24,2017_03_20_1739,f,1,negative,Correct
b,pictures/6213.jpg,congr,73,num_3,1,0.716803168878,b,1,1.10012114001,XXXXX,1,24,2017_03_20_1739,f,1,negative,Correct
b,pictures/9500.jpg,noncongr,74,num_2,1,0.633662731154,b,1,2.03344251798,XXMXX,1,24,2017_03_20_1739,f,1,negative,Correct
g,pictures/4641.jpg,noncongr,75,None,0,,g,1,0.800138331717,PPWPP,1,24,2017_03_20_1739,f,1,positive,Error
g,pictures/7492.jpg,noncongr,76,num_2,1,0.500065146014,g,1,1.51680493657,XXVXX,1,24,2017_03_20_1739,f,1,positive,Correct
g,pictures/7508.jpg,noncongr,77,num_3,1,0.816835927079,g,1,1.23342735064,MMWMM,1,24,2017_03_20_1739,f,1,positive,Correct
g,pictures/7508.jpg,congr,78,num_3,1,0.650346071459,g,1,0.733684940729,WWWWW,1,24,2017_03_20_1739,f,1,positive,Correct
b,pictures/9417.jpg,congr,79,num_2,0,0.53346632421,b,1,1.48299919791,RRRRR,1,24,2017_03_20_1739,f,1,negative,Error
g,pictures/5450.jpg,congr,80,num_1,1,0.550262565026,b,0,1.83342204755,PPPPP,1,24,2017_03_20_1739,f,1,positive,Correct
b,pictures/9530.jpg,noncongr,81,num_1,1,0.700169151183,b,1,0.833465668373,WWRWW,1,24,2017_03_20_1739,f,1,negative,Correct
b,pictures/6562.jpg,noncongr,82,num_2,1,0.700199657353,b,1,0.883481762372,XXMXX,1,24,2017_03_20_1739,f,1,negative,Correct
g,pictures/4625.jpg,congr,83,num_3,1,0.650158474222,g,1,1.28346653795,XXXXX,1,24,2017_03_20_1739,f,1,positive,Correct
g,pictures/8260.jpg,noncongr,84,num_2,1,0.616861643502,b,0,0.966813788982,XXMXX,1,24,2017_03_20_1739,f,1,positive,Correct
g,pictures/1590.jpg,noncongr,85,None,0,,g,1,0.666821572464,WWVWW,1,24,2017_03_20_1739,f,1,positive,Error
b,pictures/1274.jpg,noncongr,86,num_2,1,0.566814188147,b,1,0.633479410317,RRVRR,1,24,2017_03_20_1739,f,1,negative,Correct
g,pictures/7220.jpg,congr,87,num_3,1,0.600150933256,g,1,0.766834088368,WWWWW,1,24,2017_03_20_1739,f,1,positive,Correct
b,pictures/9342.jpg,noncongr,88,None,0,,b,1,1.10012513143,MMWMM,1,24,2017_03_20_1739,f,1,negative,Error
g,pictures/7352.jpg,noncongr,89,num_1,1,0.650155908195,g,1,0.600142665207,MMRMM,1,24,2017_03_20_1739,f,1,positive,Correct
g,pictures/2075.jpg,congr,90,num_3,1,0.616826575948,g,1,1.15011699172,WWWWW,1,24,2017_03_20_1739,f,1,positive,Correct
g,pictures/4603.jpg,congr,91,num_2,1,0.650615493534,g,1,0.650144219166,MMMMM,1,24,2017_03_20_1739,f,1,positive,Correct
b,pictures/9520.jpg,noncongr,92,num_3,1,0.61683227797,b,1,2.39994229516,VVWVV,1,24,2017_03_20_1739,f,1,negative,Correct
g,pictures/1722.jpg,congr,93,num_1,1,0.683351242682,g,1,0.633493665606,PPPPP,1,24,2017_03_20_1739,f,1,positive,Correct
g,pictures/2303.jpg,congr,94,num_1,1,0.666821002029,g,1,0.616815456888,PPPPP,1,24,2017_03_20_1739,f,1,positive,Correct
b,pictures/9911.jpg,noncongr,95,num_2,1,0.816827659262,b,1,0.816846475936,WWMWW,1,24,2017_03_20_1739,f,1,negative,Correct
g,pictures/4503.jpg,congr,96,num_3,1,0.566688172752,g,1,0.66682385304,XXXXX,1,24,2017_03_20_1739,f,1,positive,Correct
g,pictures/8510.jpg,noncongr,97,num_1,1,0.650155053008,b,0,0.783212369075,XXPXX,1,24,2017_03_20_1739,f,1,positive,Correct
g,pictures/8001.jpg,congr,98,num_2,1,0.516810923815,g,1,0.933759580599,MMMMM,1,24,2017_03_20_1739,f,1,positive,Correct
g,pictures/7660.jpg,congr,99,num_2,1,0.733498768881,b,0,1.73343291017,VVVVV,1,24,2017_03_20_1739,f,1,positive,Correct
g,pictures/4575.jpg,noncongr,100,None,0,,g,1,0.783336958848,VVWVV,1,24,2017_03_20_1739,f,2,positive,Error
g,pictures/4090.jpg,noncongr,101,num_3,1,0.73336420022,g,1,0.733424357139,VVXVV,1,24,2017_03_20_1739,f,2,positive,Correct
g,pictures/2389.jpg,congr,102,num_3,1,0.533494834322,b,0,1.11674346845,XXXXX,1,24,2017_03_20_1739,f,2,positive,Correct
g,pictures/2345.jpg,congr,103,num_3,1,0.666855214396,g,1,0.683463002555,XXXXX,1,24,2017_03_20_1739,f,2,positive,Correct
b,pictures/6561.jpg,congr,104,num_2,1,0.716854487313,b,1,1.03333161329,VVVVV,1,24,2017_03_20_1739,f,2,negative,Correct
g,pictures/7482.jpg,noncongr,105,num_1,1,0.616806903854,g,1,1.73396918783,VVPVV,1,24,2017_03_20_1739,f,2,positive,Correct
g,pictures/4542.jpg,congr,106,num_3,1,0.6668135894,g,1,0.983453508699,WWWWW,1,24,2017_03_20_1739,f,2,positive,Correct
g,pictures/4007.jpg,noncongr,107,num_1,1,0.633533294778,g,1,0.733488789992,VVRVV,1,24,2017_03_20_1739,f,2,positive,Correct
g,pictures/5270.jpg,congr,108,num_3,1,0.566871778807,g,1,2.28317601862,XXXXX,1,24,2017_03_20_1739,f,2,positive,Correct
g,pictures/7279.jpg,noncongr,109,num_3,1,0.66680760216,b,0,0.900150562637,RRXRR,1,24,2017_03_20_1739,f,2,positive,Correct
b,pictures/1274.jpg,congr,110,num_3,1,0.583500379464,b,1,0.650152486982,WWWWW,1,24,2017_03_20_1739,f,2,negative,Correct
b,pictures/6311.jpg,noncongr,111,num_3,1,0.583525468828,b,1,0.850388495019,PPXPP,1,24,2017_03_20_1739,f,2,negative,Correct
g,pictures/7481.jpg,congr,112,None,0,,g,1,1.36713127908,VVVVV,1,24,2017_03_20_1739,f,2,positive,Error
b,pictures/2345.1.jpg,noncongr,113,num_3,1,0.500053171534,b,1,0.750187241239,RRXRR,1,24,2017_03_20_1739,f,2,negative,Correct
b,pictures/9280.jpg,congr,114,num_1,1,0.550022508949,b,1,0.800132629694,PPPPP,1,24,2017_03_20_1739,f,2,negative,Correct
b,pictures/9922.jpg,congr,115,num_1,1,0.650179001736,b,1,0.749854526483,PPPPP,1,24,2017_03_20_1739,f,2,negative,Correct
b,pictures/9592.jpg,congr,116,num_3,1,0.583500664681,b,1,0.766808429034,XXXXX,1,24,2017_03_20_1739,f,2,negative,Correct
b,pictures/9429.jpg,noncongr,117,num_1,0,0.716838236665,b,1,1.98345550452,XXVXX,1,24,2017_03_20_1739,f,2,negative,Error
g,pictures/4599.jpg,congr,118,None,0,,g,1,0.683474121615,VVVVV,1,24,2017_03_20_1739,f,2,positive,Error
g,pictures/1722.jpg,noncongr,119,num_1,1,0.600175452186,g,1,0.750157875475,VVRVV,1,24,2017_03_20_1739,f,2,positive,Correct
b,pictures/3181.jpg,congr,120,num_3,1,0.616851664847,b,1,0.983472040389,XXXXX,1,24,2017_03_20_1739,f,2,negative,Correct
b,pictures/9832.jpg,noncongr,121,num_1,1,0.700096450048,b,1,1.75015017786,MMPMM,1,24,2017_03_20_1739,f,2,negative,Correct
g,pictures/6250.2.jpg,noncongr,122,num_2,1,0.650145644555,g,1,1.03344793501,RRVRR,1,24,2017_03_20_1739,f,2,positive,Correct
b,pictures/2457.jpg,congr,123,num_3,1,0.716827402823,b,1,0.800100698136,WWWWW,1,24,2017_03_20_1739,f,2,negative,Correct
g,pictures/4606.jpg,congr,124,num_2,1,0.500236492604,g,1,0.716909512179,MMMMM,1,24,2017_03_20_1739,f,2,positive,Correct
g,pictures/4599.jpg,noncongr,125,num_2,1,0.750194653636,g,1,0.917095912155,RRVRR,1,24,2017_03_20_1739,f,2,positive,Correct
g,pictures/2398.jpg,noncongr,126,num_3,1,0.633490244392,b,0,1.51679552812,PPXPP,1,24,2017_03_20_1739,f,2,positive,Correct
b,pictures/9007.jpg,noncongr,127,num_2,1,0.550175038632,b,1,0.950109636178,WWMWW,1,24,2017_03_20_1739,f,2,negative,Correct
b,pictures/9331.jpg,congr,128,num_3,1,0.600173171377,b,1,1.31714198482,WWWWW,1,24,2017_03_20_1739,f,2,negative,Correct
b,pictures/9470.jpg,congr,129,num_3,1,0.583492111648,b,1,0.650155908195,XXXXX,1,24,2017_03_20_1739,f,2,negative,Correct
b,pictures/9006.jpg,congr,130,num_2,1,0.516823468264,b,1,2.40006659995,MMMMM,1,24,2017_03_20_1739,f,2,negative,Correct
b,pictures/9341.jpg,congr,131,num_3,1,0.533509944798,b,1,0.683476687642,XXXXX,1,24,2017_03_20_1739,f,2,negative,Correct
g,pictures/8031.jpg,congr,132,num_1,1,0.650168452878,g,1,2.23351573246,PPPPP,1,24,2017_03_20_1739,f,2,positive,Correct
b,pictures/2278.jpg,noncongr,133,num_2,1,0.566892591305,b,1,2.53346119239,WWMWW,1,24,2017_03_20_1739,f,2,negative,Correct
g,pictures/2655.jpg,congr,134,num_2,1,0.633599153487,g,1,4.11670925608,MMMMM,1,24,2017_03_20_1739,f,2,positive,Correct
b,pictures/9420.jpg,noncongr,135,num_2,1,0.783491769573,b,1,0.766576640774,RRVRR,1,24,2017_03_20_1739,f,2,negative,Correct
b,pictures/9611.jpg,congr,136,num_3,1,0.550303620053,b,1,0.68339486327,XXXXX,1,24,2017_03_20_1739,f,2,negative,Correct
b,pictures/9302.jpg,congr,137,num_1,1,0.566845549503,b,1,1.21679162234,PPPPP,1,24,2017_03_20_1739,f,2,negative,Correct
b,pictures/9042.jpg,noncongr,138,num_2,1,0.516820332268,b,1,1.80016313563,XXMXX,1,24,2017_03_20_1739,f,2,negative,Correct
b,pictures/3300.jpg,noncongr,139,num_3,1,0.600200541085,b,1,0.83348277444,MMXMM,1,24,2017_03_20_1739,f,2,negative,Correct
g,pictures/4614.jpg,congr,140,num_1,1,0.600166613935,g,1,0.916815941455,PPPPP,1,24,2017_03_20_1739,f,2,positive,Correct
b,pictures/9561.jpg,congr,141,num_2,1,0.683508333983,b,1,0.800128923263,VVVVV,1,24,2017_03_20_1739,f,2,negative,Correct
g,pictures/5301.jpg,noncongr,142,num_3,1,0.583490115823,g,1,0.816707060905,RRXRR,1,24,2017_03_20_1739,f,2,positive,Correct
g,pictures/5820.jpg,congr,143,num_1,1,0.650198958814,g,1,0.800158288796,PPPPP,1,24,2017_03_20_1739,f,2,positive,Correct
g,pictures/4220.jpg,congr,144,num_2,0,0.500048895134,g,1,1.08349139872,RRRRR,1,24,2017_03_20_1739,f,2,positive,Error
g,pictures/2075.jpg,noncongr,145,num_3,1,0.583488975419,g,1,1.1000932001,RRWRR,1,24,2017_03_20_1739,f,2,positive,Correct
b,pictures/6571.jpg,congr,146,num_2,1,0.566830724012,b,1,1.15013580862,MMMMM,1,24,2017_03_20_1739,f,2,negative,Correct
g,pictures/4090.jpg,congr,147,num_2,1,0.616848528851,g,1,0.700140641071,VVVVV,1,24,2017_03_20_1739,f,2,positive,Correct
g,pictures/5270.jpg,noncongr,148,num_1,1,0.700166300172,g,1,0.950154967373,VVRVV,1,24,2017_03_20_1739,f,2,positive,Correct
g,pictures/8280.jpg,noncongr,149,num_2,1,0.516855684808,g,1,0.700132373022,WWMWW,1,24,2017_03_20_1739,f,2,positive,Correct
g,pictures/5890.jpg,noncongr,150,num_1,1,0.633533579763,g,1,1.45012118272,MMPMM,1,24,2017_03_20_1739,f,2,positive,Correct
b,pictures/9831.jpg,congr,151,num_2,1,0.566804779693,b,1,0.800150590949,MMMMM,1,24,2017_03_20_1739,f,2,negative,Correct
g,pictures/7250.jpg,congr,152,num_3,1,0.750189236598,g,1,2.15008506039,XXXXX,1,24,2017_03_20_1739,f,2,positive,Correct
b,pictures/9409.jpg,congr,153,num_3,1,0.683506908361,b,1,0.800152587006,WWWWW,1,24,2017_03_20_1739,f,2,negative,Correct
b,pictures/6838.jpg,noncongr,154,num_2,0,0.516821757657,b,1,1.26678889943,VVRVV,1,24,2017_03_20_1739,f,2,negative,Error
g,pictures/4530.jpg,congr,155,num_1,1,0.666826989269,g,1,0.816812263802,RRRRR,1,24,2017_03_20_1739,f,2,positive,Correct
b,pictures/9291.jpg,congr,156,num_3,1,0.566838136641,b,1,0.616689156508,WWWWW,1,24,2017_03_20_1739,f,2,negative,Correct
b,pictures/9584.jpg,noncongr,157,num_3,1,0.633497086819,b,1,0.933459367836,PPXPP,1,24,2017_03_20_1739,f,2,negative,Correct
b,pictures/2120.jpg,congr,158,num_1,1,0.633505069418,b,1,1.05014039879,PPPPP,1,24,2017_03_20_1739,f,2,negative,Correct
g,pictures/4624.jpg,noncongr,159,num_1,1,0.633488248568,g,1,1.03346732212,MMRMM,1,24,2017_03_20_1739,f,2,positive,Correct
b,pictures/6836.jpg,congr,160,num_1,1,0.516820617253,b,1,1.01679453044,PPPPP,1,24,2017_03_20_1739,f,2,negative,Correct
g,pictures/4180.jpg,noncongr,161,num_3,1,0.583500094479,g,1,0.750149322441,PPWPP,1,24,2017_03_20_1739,f,2,positive,Correct
g,pictures/8117.jpg,congr,162,num_1,1,0.516862527234,b,0,1.3501266283,RRRRR,1,24,2017_03_20_1739,f,2,positive,Correct
b,pictures/9922.jpg,noncongr,163,num_3,1,0.533496830147,b,1,1.03350723628,VVXVV,1,24,2017_03_20_1739,f,2,negative,Correct
b,pictures/2490.jpg,congr,164,num_2,1,0.616686590482,b,1,0.850182936061,MMMMM,1,24,2017_03_20_1739,f,2,negative,Correct
b,pictures/9341.jpg,noncongr,165,num_3,1,0.650166742271,b,1,0.850154710934,VVWVV,1,24,2017_03_20_1739,f,2,negative,Correct
g,pictures/4525.jpg,congr,166,num_3,1,0.550130277639,g,1,1.10012826766,WWWWW,1,24,2017_03_20_1739,f,2,positive,Correct
g,pictures/4600.jpg,congr,167,num_2,1,0.550196706317,g,1,0.950011275942,MMMMM,1,24,2017_03_20_1739,f,2,positive,Correct
g,pictures/7515.jpg,noncongr,168,num_3,1,0.500048894901,g,1,1.23369221087,VVXVV,1,24,2017_03_20_1739,f,2,positive,Correct
b,pictures/9452.jpg,noncongr,169,num_2,1,0.583500949666,g,0,1.08346146322,PPMPP,1,24,2017_03_20_1739,f,2,negative,Correct
g,pictures/5849.jpg,noncongr,170,num_1,1,0.63348283153,b,0,0.616802912438,WWRWW,1,24,2017_03_20_1739,f,2,positive,Correct
g,pictures/4645.jpg,congr,171,num_3,1,0.583488120232,g,1,0.816817110404,WWWWW,1,24,2017_03_20_1739,f,2,positive,Correct
b,pictures/9046.jpg,congr,172,num_2,1,0.783471242059,b,1,1.60010360624,VVVVV,1,24,2017_03_20_1739,f,2,negative,Correct
b,pictures/7136.jpg,congr,173,num_2,1,0.550159643171,b,1,0.766808429034,MMMMM,1,24,2017_03_20_1739,f,2,negative,Correct
g,pictures/8371.jpg,noncongr,174,None,0,,g,1,2.35007017804,WWRWW,1,24,2017_03_20_1739,f,2,positive,Error
b,pictures/9102.jpg,noncongr,175,num_1,1,0.666841814527,b,1,0.65016218042,VVPVV,1,24,2017_03_20_1739,f,2,negative,Correct
b,pictures/9181.jpg,noncongr,176,num_2,1,0.700191389304,b,1,0.816824808251,XXVXX,1,24,2017_03_20_1739,f,2,negative,Correct
b,pictures/6825.jpg,noncongr,177,num_2,1,0.500048609916,b,1,0.783463259228,PPVPP,1,24,2017_03_20_1739,f,2,negative,Correct
b,pictures/2490.jpg,noncongr,178,num_1,1,0.700007213047,b,1,0.65015191678,WWRWW,1,24,2017_03_20_1739,f,2,negative,Correct
b,pictures/1111.jpg,congr,179,num_1,1,0.583499239292,b,1,0.750152458437,RRRRR,1,24,2017_03_20_1739,f,2,negative,Correct
b,pictures/9560.jpg,noncongr,180,num_2,1,0.533486566273,b,1,1.29999535298,PPMPP,1,24,2017_03_20_1739,f,2,negative,Correct
b,pictures/6555.jpg,congr,181,num_1,1,0.516968015349,b,1,0.700179985026,PPPPP,1,24,2017_03_20_1739,f,2,negative,Correct
g,pictures/8120.jpg,noncongr,182,num_2,1,0.583477286156,g,1,0.883500864264,XXVXX,1,24,2017_03_20_1739,f,2,positive,Correct
g,pictures/8021.jpg,congr,183,num_3,1,0.600289493101,g,1,1.91675920621,WWWWW,1,24,2017_03_20_1739,f,2,positive,Correct
g,pictures/2352.jpg,congr,184,num_3,1,0.650162465638,g,1,0.63346572523,WWWWW,1,24,2017_03_20_1739,f,2,positive,Correct
g,pictures/7460.jpg,noncongr,185,num_3,1,0.566845549503,g,1,1.33345896844,VVWVV,1,24,2017_03_20_1739,f,2,positive,Correct
b,pictures/9145.jpg,congr,186,num_1,1,0.683487521717,b,1,0.98368529696,RRRRR,1,24,2017_03_20_1739,f,2,negative,Correct
b,pictures/9599.jpg,noncongr,187,num_3,1,0.600174881751,b,1,1.35012092604,MMXMM,1,24,2017_03_20_1739,f,2,negative,Correct
b,pictures/7361.jpg,congr,188,num_2,1,0.633502218407,b,1,0.716801458504,MMMMM,1,24,2017_03_20_1739,f,2,negative,Correct
b,pictures/9423.jpg,congr,189,num_3,1,0.566821885994,b,1,1.35012121126,WWWWW,1,24,2017_03_20_1739,f,2,negative,Correct
b,pictures/9830.jpg,noncongr,190,num_1,1,0.56693279068,b,1,0.650276221335,WWRWW,1,24,2017_03_20_1739,f,2,negative,Correct
g,pictures/4640.jpg,noncongr,191,None,0,,g,1,0.983471470186,WWRWW,1,24,2017_03_20_1739,f,2,positive,Error
g,pictures/5215.jpg,congr,192,num_1,1,0.633513907669,g,1,1.46679910622,PPPPP,1,24,2017_03_20_1739,f,2,positive,Correct
b,pictures/6220.jpg,congr,193,num_1,1,0.500199999195,b,1,0.850210305769,PPPPP,1,24,2017_03_20_1739,f,2,negative,Correct
g,pictures/4609.jpg,congr,194,num_2,1,0.600146086421,g,1,0.600191417849,VVVVV,1,24,2017_03_20_1739,f,2,positive,Correct
b,pictures/9426.jpg,congr,195,num_3,1,0.566831579432,b,1,1.200150477,WWWWW,1,24,2017_03_20_1739,f,2,negative,Correct
g,pictures/7260.jpg,noncongr,196,num_3,1,0.533496259945,g,1,1.03348870482,MMXMM,1,24,2017_03_20_1739,f,2,positive,Correct
b,pictures/1275.jpg,noncongr,197,num_1,1,0.61684909882,b,1,0.633496231399,VVPVV,1,24,2017_03_20_1739,f,2,negative,Correct
g,pictures/4533.jpg,noncongr,198,num_2,1,0.683501206571,g,1,0.750164718134,RRMRR,1,24,2017_03_20_1739,f,2,positive,Correct
b,pictures/9253.jpg,congr,199,None,0,,b,1,0.716821415583,VVVVV,1,24,2017_03_20_1739,f,2,negative,Error
b,pictures/9432.jpg,noncongr,200,num_2,1,0.733494492248,g,0,0.766785905929,WWVWW,1,24,2017_03_20_1739,f,3,negative,Correct
g,pictures/4614.jpg,noncongr,201,num_3,1,0.600178302964,g,1,0.750058089849,RRWRR,1,24,2017_03_20_1739,f,3,positive,Correct
g,pictures/4617.jpg,congr,202,num_2,1,0.550142822089,g,1,0.950135295279,MMMMM,1,24,2017_03_20_1739,f,3,positive,Correct
g,pictures/8040.jpg,congr,203,num_2,1,0.500054882141,g,1,0.650322978152,MMMMM,1,24,2017_03_20_1739,f,3,positive,Correct
g,pictures/7291.jpg,noncongr,204,num_1,1,0.633337714244,b,0,1.10009719152,MMPMM,1,24,2017_03_20_1739,f,3,positive,Correct
g,pictures/8208.jpg,noncongr,205,num_2,1,0.533348291647,g,1,0.916819362901,XXVXX,1,24,2017_03_20_1739,f,3,positive,Correct
b,pictures/9911.jpg,congr,206,num_3,1,0.633507920662,b,1,1.18345430703,XXXXX,1,24,2017_03_20_1739,f,3,negative,Correct
g,pictures/4600.jpg,noncongr,207,num_2,1,0.55015251576,g,1,0.883459239267,WWMWW,1,24,2017_03_20_1739,f,3,positive,Correct
b,pictures/9941.jpg,noncongr,208,num_3,1,0.633506210055,g,0,1.1169014154,PPXPP,1,24,2017_03_20_1739,f,3,negative,Correct
g,pictures/2655.jpg,noncongr,209,num_2,1,0.650179001503,g,1,0.683481534244,XXVXX,1,24,2017_03_20_1739,f,3,positive,Correct
g,pictures/7430.jpg,congr,210,num_3,1,0.650162750622,g,1,1.11678480846,XXXXX,1,24,2017_03_20_1739,f,3,positive,Correct
b,pictures/3215.jpg,congr,211,num_1,1,0.550153370947,b,1,0.766818692908,PPPPP,1,24,2017_03_20_1739,f,3,negative,Correct
g,pictures/7488.jpg,noncongr,212,num_1,1,0.683472126024,g,1,0.900146286003,XXRXX,1,24,2017_03_20_1739,f,3,positive,Correct
b,pictures/9295.jpg,noncongr,213,num_3,1,0.516836868133,b,1,0.666838963516,MMXMM,1,24,2017_03_20_1739,f,3,negative,Correct
b,pictures/9423.jpg,noncongr,214,num_3,1,0.650195822585,b,1,0.700139215682,MMWMM,1,24,2017_03_20_1739,f,3,negative,Correct
g,pictures/4610.jpg,congr,215,num_2,1,0.633498226991,g,1,0.666756568942,VVVVV,1,24,2017_03_20_1739,f,3,positive,Correct
g,pictures/8340.jpg,noncongr,216,num_2,1,0.666691280436,g,1,1.24423472956,RRVRR,1,24,2017_03_20_1739,f,3,positive,Correct
b,pictures/2751.jpg,congr,217,num_3,1,0.516846276587,b,1,1.08344122069,XXXXX,1,24,2017_03_20_1739,f,3,negative,Correct
g,pictures/4255.jpg,congr,218,num_3,1,0.500214539468,g,1,0.700160313165,XXXXX,1,24,2017_03_20_1739,f,3,positive,Correct
b,pictures/2799.jpg,congr,219,num_1,1,0.500055452576,b,1,1.0334701729,PPPPP,1,24,2017_03_20_1739,f,3,negative,Correct
b,pictures/9610.jpg,noncongr,220,num_3,1,0.550153085729,b,1,0.750159586081,RRXRR,1,24,2017_03_20_1739,f,3,negative,Correct
g,pictures/8500.jpg,congr,221,num_1,1,0.516851408407,b,0,1.50011247303,PPPPP,1,24,2017_03_20_1739,f,3,positive,Correct
b,pictures/3061.jpg,noncongr,222,num_2,1,0.516831451096,b,1,2.23360839067,WWMWW,1,24,2017_03_20_1739,f,3,negative,Correct
g,pictures/1340.jpg,noncongr,223,num_2,1,0.550171332434,g,1,0.833559182007,RRVRR,1,24,2017_03_20_1739,f,3,positive,Correct
g,pictures/5814.jpg,noncongr,224,num_2,1,0.550187868299,g,1,0.900279143825,WWMWW,1,24,2017_03_20_1739,f,3,positive,Correct
b,pictures/2590.jpg,noncongr,225,num_1,1,0.633518754272,b,1,2.03343196935,WWRWW,1,24,2017_03_20_1739,f,3,negative,Correct
g,pictures/9156.jpg,congr,226,num_3,1,0.600144375814,b,0,0.983498840127,XXXXX,1,24,2017_03_20_1739,f,3,positive,Correct
g,pictures/1660.jpg,noncongr,227,num_3,1,0.650144504383,g,1,0.783489773981,PPWPP,1,24,2017_03_20_1739,f,3,positive,Correct
b,pictures/9102.jpg,congr,228,num_1,1,0.550183306681,b,1,1.18347312394,RRRRR,1,24,2017_03_20_1739,f,3,negative,Correct
g,pictures/2224.jpg,noncongr,229,num_3,1,0.500046044122,g,1,0.783826194704,VVWVV,1,24,2017_03_20_1739,f,3,positive,Correct
g,pictures/4603.jpg,noncongr,230,num_1,1,0.600155209657,g,1,0.716824836796,XXRXX,1,24,2017_03_20_1739,f,3,positive,Correct
g,pictures/7451.jpg,congr,231,num_2,1,0.533349717269,g,1,0.800150876166,MMMMM,1,24,2017_03_20_1739,f,3,positive,Correct
b,pictures/9008.jpg,noncongr,232,num_2,1,0.650153627386,b,1,0.883485468803,PPVPP,1,24,2017_03_20_1739,f,3,negative,Correct
g,pictures/8033.jpg,noncongr,233,num_2,1,0.516842855373,g,1,0.766826105537,RRMRR,1,24,2017_03_20_1739,f,3,positive,Correct
b,pictures/6220.jpg,noncongr,234,num_3,1,0.500195722794,b,1,1.1998437068,MMXMM,1,24,2017_03_20_1739,f,3,negative,Correct
g,pictures/4653.jpg,noncongr,235,num_2,1,0.516838863725,g,1,0.683479538653,WWVWW,1,24,2017_03_20_1739,f,3,positive,Correct
b,pictures/8230.jpg,congr,236,num_3,1,0.500054597156,b,1,0.683811112773,XXXXX,1,24,2017_03_20_1739,f,3,negative,Correct
b,pictures/9031.jpg,noncongr,237,num_3,1,0.583494962659,b,1,1.61677981913,PPXPP,1,24,2017_03_20_1739,f,3,negative,Correct
b,pictures/9006.jpg,noncongr,238,num_2,1,0.533512225607,b,1,0.833474791842,WWMWW,1,24,2017_03_20_1739,f,3,negative,Correct
b,pictures/3300.jpg,congr,239,num_1,1,0.566823881818,b,1,0.700146628078,PPPPP,1,24,2017_03_20_1739,f,3,negative,Correct
b,pictures/9432.jpg,congr,240,num_2,1,0.500175480498,g,0,1.1001433779,MMMMM,1,24,2017_03_20_1739,f,3,negative,Correct
b,pictures/9220.jpg,congr,241,None,0,,g,0,1.64975933079,VVVVV,1,24,2017_03_20_1739,f,3,negative,Error
b,pictures/9421.jpg,congr,242,num_3,1,0.600165758515,b,1,1.00014283648,WWWWW,1,24,2017_03_20_1739,f,3,negative,Correct
b,pictures/3051.jpg,congr,243,num_1,1,0.500183748547,b,1,0.733719723299,PPPPP,1,24,2017_03_20_1739,f,3,negative,Correct
g,pictures/4535.jpg,congr,244,num_1,1,0.500035210047,g,1,0.850155566121,PPPPP,1,24,2017_03_20_1739,f,3,positive,Correct
g,pictures/8531.jpg,noncongr,245,num_2,1,0.500028937822,b,0,1.21684151539,WWMWW,1,24,2017_03_20_1739,f,3,positive,Correct
g,pictures/7460.jpg,congr,246,num_1,1,0.583493537037,g,1,0.916794273769,PPPPP,1,24,2017_03_20_1739,f,3,positive,Correct
g,pictures/8531.jpg,congr,247,num_3,1,0.600173171144,b,0,0.916809384245,XXXXX,1,24,2017_03_20_1739,f,3,positive,Correct
b,pictures/9340.jpg,congr,248,num_2,1,0.566825022222,b,1,0.766813846072,VVVVV,1,24,2017_03_20_1739,f,3,negative,Correct
b,pictures/7380.jpg,noncongr,249,num_2,1,0.583655190188,b,1,0.816800859524,PPVPP,1,24,2017_03_20_1739,f,3,negative,Correct
b,pictures/9120.jpg,noncongr,250,num_2,1,0.500065146014,b,1,1.00048781023,PPMPP,1,24,2017_03_20_1739,f,3,negative,Correct
b,pictures/9180.jpg,noncongr,251,num_3,1,0.616917523555,b,1,0.600147226825,RRWRR,1,24,2017_03_20_1739,f,3,negative,Correct
b,pictures/9930.jpg,noncongr,252,num_2,1,0.616816597292,b,1,1.65009888774,RRVRR,1,24,2017_03_20_1739,f,3,negative,Correct
b,pictures/2750.jpg,congr,253,num_1,1,0.533466894412,b,1,0.867151093669,PPPPP,1,24,2017_03_20_1739,f,3,negative,Correct
g,pictures/4533.jpg,congr,254,num_1,1,0.550166200614,g,1,0.666822142433,PPPPP,1,24,2017_03_20_1739,f,3,positive,Correct
g,pictures/2158.jpg,noncongr,255,num_2,1,0.500051175943,g,1,0.850146442885,RRMRR,1,24,2017_03_20_1739,f,3,positive,Correct
b,pictures/2456.jpg,congr,256,num_1,1,0.500183463562,b,1,0.783201250248,PPPPP,1,24,2017_03_20_1739,f,3,negative,Correct
b,pictures/9903.jpg,noncongr,257,num_2,0,0.650181282312,b,1,2.03341543325,VVRVV,1,24,2017_03_20_1739,f,3,negative,Error
b,pictures/2715.jpg,noncongr,258,num_1,1,0.550178459845,g,0,1.33369275252,WWPWW,1,24,2017_03_20_1739,f,3,negative,Correct
b,pictures/9900.jpg,noncongr,259,num_2,0,0.500180612318,b,1,1.01680279849,MMWMM,1,24,2017_03_20_1739,f,3,negative,Error
b,pictures/9186.jpg,noncongr,260,num_1,1,0.50003948668,g,0,0.866810111096,VVPVV,1,24,2017_03_20_1739,f,3,negative,Correct
g,pictures/5623.jpg,congr,261,num_2,1,0.600147797028,g,1,1.25012979284,VVVVV,1,24,2017_03_20_1739,f,3,positive,Correct
g,pictures/2300.jpg,noncongr,262,num_2,1,0.550181596074,g,1,0.833533237688,PPMPP,1,24,2017_03_20_1739,f,3,positive,Correct
b,pictures/9925.jpg,congr,263,num_2,1,0.583513494348,b,1,0.666807887377,VVVVV,1,24,2017_03_20_1739,f,3,negative,Correct
g,pictures/8090.jpg,noncongr,264,num_2,1,0.583481277572,g,1,0.716819989961,XXVXX,1,24,2017_03_20_1739,f,3,positive,Correct
g,pictures/8461.jpg,noncongr,265,num_2,1,0.516822612844,g,1,0.866587731289,WWVWW,1,24,2017_03_20_1739,f,3,positive,Correct
g,pictures/8371.jpg,congr,266,num_3,1,0.683485810878,g,1,1.18350163405,WWWWW,1,24,2017_03_20_1739,f,3,positive,Correct
g,pictures/2391.jpg,congr,267,num_2,1,0.500054597156,g,1,0.716824266594,MMMMM,1,24,2017_03_20_1739,f,3,positive,Correct
g,pictures/4575.jpg,congr,268,num_1,1,0.516840574564,g,1,0.600138959009,RRRRR,1,24,2017_03_20_1739,f,3,positive,Correct
b,pictures/2590.jpg,congr,269,num_1,1,0.716852776939,b,1,4.05000183894,RRRRR,1,24,2017_03_20_1739,f,3,negative,Correct
b,pictures/9186.jpg,congr,270,num_2,1,0.500035780249,g,0,0.666809597984,MMMMM,1,24,2017_03_20_1739,f,3,negative,Correct
b,pictures/9041.jpg,congr,271,num_1,1,0.500064005377,g,0,0.833498740336,PPPPP,1,24,2017_03_20_1739,f,3,negative,Correct
b,pictures/3230.jpg,congr,272,num_2,1,0.783473808086,b,1,0.80010782578,VVVVV,1,24,2017_03_20_1739,f,3,negative,Correct
b,pictures/3215.jpg,noncongr,273,num_3,1,0.600156350061,b,1,0.766828671331,RRXRR,1,24,2017_03_20_1739,f,3,negative,Correct
g,pictures/7350.jpg,noncongr,274,None,0,,g,1,1.01684984006,XXVXX,1,24,2017_03_20_1739,f,3,positive,Error
g,pictures/8162.jpg,noncongr,275,num_2,1,0.5000446185,g,1,0.833477072651,XXMXX,1,24,2017_03_20_1739,f,3,positive,Correct
g,pictures/1463.jpg,noncongr,276,num_2,1,0.500036920654,g,1,0.600152073661,PPMPP,1,24,2017_03_20_1739,f,3,positive,Correct
g,pictures/1731.jpg,noncongr,277,num_2,1,0.550163349602,g,1,0.716820275178,WWVWW,1,24,2017_03_20_1739,f,3,positive,Correct
b,pictures/3017.jpg,noncongr,278,num_1,1,0.616807474056,b,1,0.783510016277,XXPXX,1,24,2017_03_20_1739,f,3,negative,Correct
b,pictures/9901.jpg,congr,279,num_3,1,0.566834715661,b,1,0.833472796017,XXXXX,1,24,2017_03_20_1739,f,3,negative,Correct
g,pictures/2362.jpg,noncongr,280,num_2,1,0.550173043041,g,1,1.01687293337,PPVPP,1,24,2017_03_20_1739,f,3,positive,Correct
b,pictures/6831.jpg,congr,281,num_3,1,0.600286071887,b,1,1.28351985221,WWWWW,1,24,2017_03_20_1739,f,3,negative,Correct
g,pictures/4520.jpg,congr,282,num_2,1,0.533633964369,g,1,0.766864024103,VVVVV,1,24,2017_03_20_1739,f,3,positive,Correct
g,pictures/8467.jpg,congr,283,num_2,1,0.500051175943,g,1,0.783467250876,MMMMM,1,24,2017_03_20_1739,f,3,positive,Correct
b,pictures/2455.jpg,noncongr,284,num_1,1,0.600259272149,b,1,0.850030976348,MMPMM,1,24,2017_03_20_1739,f,3,negative,Correct
b,pictures/9927.jpg,congr,285,num_2,1,0.500019529602,b,1,1.06682801573,MMMMM,1,24,2017_03_20_1739,f,3,negative,Correct
g,pictures/4310.jpg,congr,286,num_3,1,0.616814316483,g,1,0.966648144647,WWWWW,1,24,2017_03_20_1739,f,3,positive,Correct
g,pictures/4609.jpg,noncongr,287,num_3,1,0.633438070538,g,1,0.683604698628,RRXRR,1,24,2017_03_20_1739,f,3,positive,Correct
g,pictures/4503.jpg,noncongr,288,num_1,1,0.5501456731,g,1,0.633539281785,WWPWW,1,24,2017_03_20_1739,f,3,positive,Correct
b,pictures/2715.jpg,congr,289,num_3,1,0.583507507341,b,1,1.40013217344,WWWWW,1,24,2017_03_20_1739,f,3,negative,Correct
b,pictures/9042.jpg,congr,290,num_2,1,0.533365112729,b,1,1.68326143525,MMMMM,1,24,2017_03_20_1739,f,3,negative,Correct
g,pictures/5460.jpg,noncongr,291,num_2,1,0.716817709384,b,0,0.783467250876,PPMPP,1,24,2017_03_20_1739,f,3,positive,Correct
g,pictures/5849.jpg,congr,292,num_3,1,0.600166043732,g,1,1.45009352779,XXXXX,1,24,2017_03_20_1739,f,3,positive,Correct
b,pictures/2053.jpg,noncongr,293,num_3,1,0.61682115891,b,1,0.816816540435,RRXRR,1,24,2017_03_20_1739,f,3,negative,Correct
g,pictures/8021.jpg,noncongr,294,num_2,1,0.683502346976,g,1,0.983450372703,XXVXX,1,24,2017_03_20_1739,f,3,positive,Correct
b,pictures/2456.jpg,noncongr,295,num_3,1,0.63348938874,b,1,1.00013599382,RRWRR,1,24,2017_03_20_1739,f,3,negative,Correct
b,pictures/9160.jpg,noncongr,296,None,0,,b,1,1.86676021828,MMXMM,1,24,2017_03_20_1739,f,3,negative,Error
b,pictures/9140.jpg,congr,297,num_3,1,0.566843553912,b,1,0.66679505771,XXXXX,1,24,2017_03_20_1739,f,3,negative,Correct
b,pictures/2455.jpg,congr,298,num_1,1,0.516834302107,b,1,0.833487051073,PPPPP,1,24,2017_03_20_1739,f,3,negative,Correct
b,pictures/9253.jpg,noncongr,299,num_3,1,0.583478141576,b,1,0.650163320825,VVXVV,1,24,2017_03_20_1739,f,3,negative,Correct
g,pictures/5260.jpg,noncongr,300,num_3,1,0.566837281454,g,1,0.766711209202,VVWVV,1,24,2017_03_20_1739,f,4,positive,Correct
b,pictures/2055.1.jpg,noncongr,301,num_1,1,0.566833290039,b,1,0.866774473339,WWRWW,1,24,2017_03_20_1739,f,4,negative,Correct
g,pictures/4320.jpg,congr,302,num_1,1,0.583480707603,g,1,0.766786761349,PPPPP,1,24,2017_03_20_1739,f,4,positive,Correct
b,pictures/9409.jpg,noncongr,303,num_2,1,0.683494364144,b,1,0.733485083794,XXVXX,1,24,2017_03_20_1739,f,4,negative,Correct
b,pictures/9332.jpg,noncongr,304,num_2,1,0.616826575948,b,1,0.683194436366,WWMWW,1,24,2017_03_20_1739,f,4,negative,Correct
b,pictures/9340.jpg,noncongr,305,num_1,1,0.616824865341,b,1,0.716822840972,WWRWW,1,24,2017_03_20_1739,f,4,negative,Correct
g,pictures/4220.jpg,noncongr,306,num_1,1,0.683495219331,g,1,0.766810710076,MMPMM,1,24,2017_03_20_1739,f,4,positive,Correct
g,pictures/8041.jpg,congr,307,num_3,1,0.63349395059,g,1,0.683523444459,XXXXX,1,24,2017_03_20_1739,f,4,positive,Correct
g,pictures/4225.jpg,noncongr,308,num_3,1,0.699976422125,g,1,0.750205772696,RRXRR,1,24,2017_03_20_1739,f,4,positive,Correct
b,pictures/3061.jpg,congr,309,num_1,1,0.500034925062,b,1,0.61710626143,PPPPP,1,24,2017_03_20_1739,f,4,negative,Correct
b,pictures/2753.jpg,noncongr,310,num_2,1,0.533497400349,b,1,0.716811151942,XXMXX,1,24,2017_03_20_1739,f,4,negative,Correct
b,pictures/6200.jpg,noncongr,311,num_3,1,0.600165473297,b,1,0.916852434631,RRXRR,1,24,2017_03_20_1739,f,4,negative,Correct
b,pictures/9927.jpg,noncongr,312,num_1,1,0.600174311781,b,1,3.31642153091,XXRXX,1,24,2017_03_20_1739,f,4,negative,Correct
b,pictures/9424.jpg,congr,313,num_2,1,0.500143263955,b,1,1.21685177879,MMMMM,1,24,2017_03_20_1739,f,4,negative,Correct
g,pictures/7390.jpg,congr,314,num_1,1,0.533467464615,b,0,0.983641961357,PPPPP,1,24,2017_03_20_1739,f,4,positive,Correct
g,pictures/2346.jpg,congr,315,num_1,1,0.516880773939,g,1,0.983484870056,RRRRR,1,24,2017_03_20_1739,f,4,positive,Correct
g,pictures/1731.jpg,congr,316,num_2,1,0.550190434093,g,1,0.766807003645,VVVVV,1,24,2017_03_20_1739,f,4,positive,Correct
g,pictures/4250.jpg,noncongr,317,num_1,1,0.517065520165,g,1,0.650202380028,MMRMM,1,24,2017_03_20_1739,f,4,positive,Correct
b,pictures/9001.jpg,noncongr,318,num_2,1,0.616836839588,g,0,1.45011006366,WWVWW,1,24,2017_03_20_1739,f,4,negative,Correct
g,pictures/5450.jpg,noncongr,319,num_1,1,0.683337557828,b,0,0.633480835706,MMRMM,1,24,2017_03_20_1739,f,4,positive,Correct
g,pictures/4619.jpg,noncongr,320,num_2,1,0.53350680857,g,1,0.616927502211,WWMWW,1,24,2017_03_20_1739,f,4,positive,Correct
b,pictures/9320.jpg,congr,321,num_3,1,0.583480422385,b,1,0.633482261328,WWWWW,1,24,2017_03_20_1739,f,4,negative,Correct
g,pictures/8117.jpg,noncongr,322,num_1,1,0.516852833796,b,0,0.93346107821,MMRMM,1,24,2017_03_20_1739,f,4,positive,Correct
g,pictures/4628.jpg,congr,323,num_1,1,0.500034925062,g,1,0.883471213514,PPPPP,1,24,2017_03_20_1739,f,4,positive,Correct
b,pictures/9599.jpg,congr,324,num_3,1,0.616847388446,b,1,0.616835128982,WWWWW,1,24,2017_03_20_1739,f,4,negative,Correct
g,pictures/1659.jpg,congr,325,num_3,1,0.600139528979,g,1,0.750136777759,WWWWW,1,24,2017_03_20_1739,f,4,positive,Correct
g,pictures/4505.jpg,noncongr,326,num_2,1,0.650162180653,g,1,0.883472068934,WWMWW,1,24,2017_03_20_1739,f,4,positive,Correct
g,pictures/2346.jpg,noncongr,327,None,0,,g,1,0.88349829847,MMRMM,1,24,2017_03_20_1739,f,4,positive,Error
b,pictures/3051.jpg,noncongr,328,num_3,1,0.500206271652,b,1,0.633524741745,RRXRR,1,24,2017_03_20_1739,f,4,negative,Correct
g,pictures/4598.jpg,congr,329,num_2,1,0.500044333516,g,1,0.950140142115,MMMMM,1,24,2017_03_20_1739,f,4,positive,Correct
b,pictures/9500.jpg,congr,330,num_3,1,0.516813774593,b,1,0.633481120924,WWWWW,1,24,2017_03_20_1739,f,4,negative,Correct
g,pictures/4572.jpg,congr,331,num_1,1,0.500040057115,g,1,0.733484513825,PPPPP,1,24,2017_03_20_1739,f,4,positive,Correct
b,pictures/9046.jpg,noncongr,332,num_2,0,0.500041197287,b,1,1.68345958134,WWPWW,1,24,2017_03_20_1739,f,4,negative,Error
g,pictures/2300.jpg,congr,333,num_2,1,0.583561676554,g,1,0.933398070745,MMMMM,1,24,2017_03_20_1739,f,4,positive,Correct
b,pictures/9301.jpg,noncongr,334,num_2,1,0.533493979136,b,1,0.600297475932,RRMRR,1,24,2017_03_20_1739,f,4,negative,Correct
g,pictures/8260.jpg,congr,335,num_2,1,0.633496801369,g,1,1.31681497209,VVVVV,1,24,2017_03_20_1739,f,4,positive,Correct
g,pictures/1999.jpg,congr,336,num_1,1,0.55015080492,g,1,2.75019037724,RRRRR,1,24,2017_03_20_1739,f,4,positive,Correct
b,pictures/9920.jpg,congr,337,None,0,,b,1,0.700154896127,VVVVV,1,24,2017_03_20_1739,f,4,negative,Error
b,pictures/2301.jpg,noncongr,338,None,0,,b,1,1.51678811549,RRVRR,1,24,2017_03_20_1739,f,4,negative,Error
g,pictures/7482.jpg,congr,339,num_1,1,0.550142822089,b,0,0.883576986613,RRRRR,1,24,2017_03_20_1739,f,4,positive,Correct
g,pictures/4525.jpg,noncongr,340,num_2,1,0.516863952624,g,1,0.750147326617,WWMWW,1,24,2017_03_20_1739,f,4,positive,Correct
g,pictures/7501.jpg,noncongr,341,num_3,1,0.666842099745,b,0,0.966814929387,VVXVV,1,24,2017_03_20_1739,f,4,positive,Correct
b,pictures/9184.jpg,congr,342,num_3,1,0.666787359864,b,1,0.933468776057,WWWWW,1,24,2017_03_20_1739,f,4,negative,Correct
b,pictures/9373.jpg,noncongr,343,num_3,1,0.583488690434,b,1,0.683542546351,PPXPP,1,24,2017_03_20_1739,f,4,negative,Correct
b,pictures/9395.jpg,congr,344,num_1,1,0.550192144932,b,1,1.85011878796,RRRRR,1,24,2017_03_20_1739,f,4,negative,Correct
b,pictures/9520.jpg,congr,345,num_2,1,0.750143335201,b,1,1.01686266973,VVVVV,1,24,2017_03_20_1739,f,4,negative,Correct
b,pictures/9941.jpg,congr,346,num_2,1,0.500204275828,g,0,3.33338541212,MMMMM,1,24,2017_03_20_1739,f,4,negative,Correct
g,pictures/7488.jpg,congr,347,num_3,1,0.5168283151,g,1,1.00000028522,XXXXX,1,24,2017_03_20_1739,f,4,positive,Correct
g,pictures/1720.jpg,congr,348,num_1,1,0.750203776872,g,1,0.783474663273,PPPPP,1,24,2017_03_20_1739,f,4,positive,Correct
g,pictures/4650.jpg,congr,349,num_2,1,0.500038631493,g,1,0.650143648963,MMMMM,1,24,2017_03_20_1739,f,4,positive,Correct
b,pictures/9435.jpg,noncongr,350,num_1,1,0.566831579432,b,1,0.93346706545,MMPMM,1,24,2017_03_20_1739,f,4,negative,Correct
g,pictures/4535.jpg,noncongr,351,num_3,1,0.566825877409,g,1,0.716815998778,VVWVV,1,24,2017_03_20_1739,f,4,positive,Correct
b,pictures/9831.jpg,noncongr,352,num_3,1,0.550143107306,b,1,0.716810011305,VVXVV,1,24,2017_03_20_1739,f,4,negative,Correct
b,pictures/9373.jpg,congr,353,num_1,1,0.500044333516,b,1,0.750170990359,PPPPP,1,24,2017_03_20_1739,f,4,negative,Correct
b,pictures/9920.jpg,noncongr,354,num_2,1,0.500050035305,b,1,0.766806148458,PPMPP,1,24,2017_03_20_1739,f,4,negative,Correct
b,pictures/9415.jpg,noncongr,355,num_1,1,0.66681872122,b,1,1.28344059363,VVRVV,1,24,2017_03_20_1739,f,4,negative,Correct
g,pictures/5623.jpg,noncongr,356,num_2,1,0.566840702668,g,1,1.15014265105,XXVXX,1,24,2017_03_20_1739,f,4,positive,Correct
g,pictures/7470.jpg,noncongr,357,num_1,1,0.633623101981,b,0,1.15012839576,VVPVV,1,24,2017_03_20_1739,f,4,positive,Correct
g,pictures/5215.jpg,noncongr,358,num_2,1,0.500042052707,g,1,1.06681974768,XXMXX,1,24,2017_03_20_1739,f,4,positive,Correct
b,pictures/9427.jpg,congr,359,num_2,1,0.516824893653,b,1,1.08366673696,MMMMM,1,24,2017_03_20_1739,f,4,negative,Correct
b,pictures/9120.jpg,congr,360,num_2,1,0.566824737005,b,1,0.966795827495,VVVVV,1,24,2017_03_20_1739,f,4,negative,Correct
g,pictures/7477.jpg,congr,361,num_2,1,0.500195437577,g,1,0.766808714252,VVVVV,1,24,2017_03_20_1739,f,4,positive,Correct
b,pictures/9184.jpg,noncongr,362,num_3,1,0.616816312075,b,1,0.716823126189,VVWVV,1,24,2017_03_20_1739,f,4,negative,Correct
g,pictures/4601.jpg,noncongr,363,num_2,1,0.500043763313,g,1,0.833480493631,XXMXX,1,24,2017_03_20_1739,f,4,positive,Correct
b,pictures/9491.jpg,congr,364,num_3,1,0.733499624068,b,1,0.850148438476,WWWWW,1,24,2017_03_20_1739,f,4,negative,Correct
g,pictures/8250.jpg,congr,365,num_2,1,0.500053456752,g,1,1.18347397912,MMMMM,1,24,2017_03_20_1739,f,4,positive,Correct
g,pictures/8031.jpg,noncongr,366,num_1,1,0.566825307207,g,1,0.933483316097,VVPVV,1,24,2017_03_20_1739,f,4,positive,Correct
b,pictures/7361.jpg,noncongr,367,num_2,0,0.50013271533,b,1,0.916767474031,PPWPP,1,24,2017_03_20_1739,f,4,negative,Error
b,pictures/9331.jpg,noncongr,368,num_1,1,0.583490686258,b,1,1.23346869042,XXRXX,1,24,2017_03_20_1739,f,4,negative,Correct
b,pictures/9265.jpg,congr,369,num_3,1,0.533516502241,b,1,1.01680422388,XXXXX,1,24,2017_03_20_1739,f,4,negative,Correct
b,pictures/1111.jpg,noncongr,370,num_3,1,0.516824608669,b,1,0.71683766623,VVXVV,1,24,2017_03_20_1739,f,4,negative,Correct
b,pictures/9495.jpg,noncongr,371,num_1,1,0.583483273629,b,1,0.833454834297,XXPXX,1,24,2017_03_20_1739,f,4,negative,Correct
b,pictures/9428.jpg,noncongr,372,num_1,1,0.550169621594,b,1,1.21681756666,WWRWW,1,24,2017_03_20_1739,f,4,negative,Correct
g,pictures/5994.jpg,congr,373,num_3,1,0.550184161868,b,0,1.03346333071,WWWWW,1,24,2017_03_20_1739,f,4,positive,Correct
g,pictures/5622.jpg,noncongr,374,num_3,1,0.566848400515,g,1,1.33346324507,PPWPP,1,24,2017_03_20_1739,f,4,positive,Correct
g,pictures/5994.jpg,noncongr,375,num_2,1,0.616850239458,g,1,1.20013679215,XXVXX,1,24,2017_03_20_1739,f,4,positive,Correct
b,pictures/9220.jpg,noncongr,376,num_2,1,0.583503515692,g,0,0.750172700733,XXMXX,1,24,2017_03_20_1739,f,4,negative,Correct
g,pictures/4601.jpg,congr,377,num_2,1,0.500037205871,g,1,0.60014836723,VVVVV,1,24,2017_03_20_1739,f,4,positive,Correct
g,pictures/2391.jpg,noncongr,378,num_3,1,0.666821287246,g,1,0.783447863534,RRWRR,1,24,2017_03_20_1739,f,4,positive,Correct
b,pictures/9420.jpg,congr,379,num_3,1,0.516834587324,b,1,0.76681926311,WWWWW,1,24,2017_03_20_1739,f,4,negative,Correct
b,pictures/9000.jpg,noncongr,380,num_3,1,0.533490557922,g,0,1.31679130881,MMWMM,1,24,2017_03_20_1739,f,4,negative,Correct
g,pictures/1595.jpg,congr,381,num_2,1,0.616802627454,g,1,1.15020537353,VVVVV,1,24,2017_03_20_1739,f,4,positive,Correct
g,pictures/4180.jpg,congr,382,num_3,1,0.533548148582,g,1,0.700144632487,XXXXX,1,24,2017_03_20_1739,f,4,positive,Correct
b,pictures/9426.jpg,noncongr,383,num_1,1,0.566843838897,b,1,0.766911636107,MMPMM,1,24,2017_03_20_1739,f,4,negative,Correct
b,pictures/3160.jpg,congr,384,num_2,1,0.500044333516,b,1,0.983469189378,MMMMM,1,24,2017_03_20_1739,f,4,negative,Correct
b,pictures/9491.jpg,noncongr,385,num_3,1,0.516789541114,b,1,0.666835257318,VVWVV,1,24,2017_03_20_1739,f,4,negative,Correct
g,pictures/7250.jpg,noncongr,386,num_1,1,0.600156350294,g,1,1.50012216624,MMRMM,1,24,2017_03_20_1739,f,4,positive,Correct
b,pictures/9008.jpg,congr,387,num_1,1,0.550183021463,b,1,0.666826989269,PPPPP,1,24,2017_03_20_1739,f,4,negative,Correct
b,pictures/9160.jpg,congr,388,num_2,1,0.500054311939,b,1,0.800158288796,VVVVV,1,24,2017_03_20_1739,f,4,negative,Correct
g,pictures/7505.jpg,congr,389,num_2,1,0.533476017648,g,1,1.49999301508,VVVVV,1,24,2017_03_20_1739,f,4,positive,Correct
g,pictures/4606.jpg,noncongr,390,num_2,1,0.600143805612,g,1,0.766820403282,XXVXX,1,24,2017_03_20_1739,f,4,positive,Correct
b,pictures/2141.jpg,noncongr,391,num_2,1,0.500200569397,b,1,0.850153570296,XXMXX,1,24,2017_03_20_1739,f,4,negative,Correct
b,pictures/7135.jpg,noncongr,392,num_2,0,0.500034640078,b,1,0.800133485114,PPWPP,1,24,2017_03_20_1739,f,4,negative,Error
b,pictures/1271.jpg,congr,393,num_3,1,0.600166328717,b,1,0.616842541611,XXXXX,1,24,2017_03_20_1739,f,4,negative,Correct
b,pictures/9280.jpg,noncongr,394,num_1,1,0.500028082402,b,1,1.31680869986,WWPWW,1,24,2017_03_20_1739,f,4,negative,Correct
b,pictures/9180.jpg,congr,395,num_2,1,0.500030078227,b,1,0.866820374969,VVVVV,1,24,2017_03_20_1739,f,4,negative,Correct
b,pictures/6561.jpg,noncongr,396,num_1,1,0.566827873234,b,1,0.816800574539,XXRXX,1,24,2017_03_20_1739,f,4,negative,Correct
g,pictures/8620.jpg,congr,397,num_1,1,0.500049180118,g,1,0.816821387038,RRRRR,1,24,2017_03_20_1739,f,4,positive,Correct
b,pictures/6241.jpg,noncongr,398,num_3,1,0.550139686093,b,1,0.816812263802,VVXVV,1,24,2017_03_20_1739,f,4,negative,Correct
b,pictures/2278.jpg,congr,399,num_2,1,0.65013424051,b,1,1.13350635255,VVVVV,1,24,2017_03_20_1739,f,4,negative,Correct
b,pictures/6020.jpg,noncongr,400,num_2,1,0.633463729639,b,1,0.916666547768,PPVPP,1,24,2017_03_20_1739,f,5,negative,Correct
g,pictures/7282.jpg,noncongr,401,num_2,1,0.500046329107,g,1,0.716810866725,RRVRR,1,24,2017_03_20_1739,f,5,positive,Correct
b,pictures/9322.jpg,noncongr,402,num_2,1,0.517003652873,b,1,0.666775670834,WWVWW,1,24,2017_03_20_1739,f,5,negative,Correct
b,pictures/9590.jpg,congr,403,num_1,1,0.500040912302,b,1,0.566880332073,RRRRR,1,24,2017_03_20_1739,f,5,negative,Correct
g,pictures/7282.jpg,congr,404,num_1,1,0.500028652605,g,1,0.583841077052,PPPPP,1,24,2017_03_20_1739,f,5,positive,Correct
b,pictures/9322.jpg,congr,405,num_2,1,0.500208837446,b,1,0.5834587547,MMMMM,1,24,2017_03_20_1739,f,5,negative,Correct
g,pictures/8340.jpg,congr,406,num_3,1,0.650179001503,b,0,0.750165288104,WWWWW,1,24,2017_03_20_1739,f,5,positive,Correct
b,pictures/9452.jpg,congr,407,num_2,1,0.50003863126,b,1,0.733360494021,MMMMM,1,24,2017_03_20_1739,f,5,negative,Correct
b,pictures/9002.jpg,noncongr,408,num_1,1,0.500031218631,b,1,1.55012029898,MMRMM,1,24,2017_03_20_1739,f,5,negative,Correct
b,pictures/6020.jpg,congr,409,num_2,1,0.500033499673,b,1,0.583381776931,MMMMM,1,24,2017_03_20_1739,f,5,negative,Correct
g,pictures/8118.jpg,congr,410,num_2,1,0.500062579988,b,0,0.999802994076,MMMMM,1,24,2017_03_20_1739,f,5,positive,Correct
b,pictures/9265.jpg,noncongr,411,num_3,1,0.783522845712,b,1,0.833343644394,VVWVV,1,24,2017_03_20_1739,f,5,negative,Correct
g,pictures/5820.jpg,noncongr,412,num_2,1,0.500032644253,g,1,0.63348938874,WWMWW,1,24,2017_03_20_1739,f,5,positive,Correct
b,pictures/9145.jpg,noncongr,413,num_3,1,0.60003404133,b,1,0.91682221368,PPWPP,1,24,2017_03_20_1739,f,5,negative,Correct
g,pictures/4625.jpg,noncongr,414,num_2,1,0.533382218797,g,1,0.633459738223,PPMPP,1,24,2017_03_20_1739,f,5,positive,Correct
b,pictures/9621.jpg,noncongr,415,num_2,1,0.600161767099,b,1,1.56679708208,WWMWW,1,24,2017_03_20_1739,f,5,negative,Correct
g,pictures/7350.jpg,congr,416,num_3,1,0.500031218631,g,1,0.633466865635,WWWWW,1,24,2017_03_20_1739,f,5,positive,Correct
g,pictures/7477.jpg,noncongr,417,num_2,1,0.500218245899,g,1,0.600166043732,RRMRR,1,24,2017_03_20_1739,f,5,positive,Correct
g,pictures/7430.jpg,noncongr,418,num_3,1,0.616845107637,g,1,0.950131874299,RRWRR,1,24,2017_03_20_1739,f,5,positive,Correct
b,pictures/9584.jpg,congr,419,num_1,1,0.500046899542,b,1,0.633514762856,PPPPP,1,24,2017_03_20_1739,f,5,negative,Correct
b,pictures/9330.jpg,noncongr,420,num_3,1,0.683557371609,b,1,0.76701854961,PPWPP,1,24,2017_03_20_1739,f,5,negative,Correct
b,pictures/2055.1.jpg,congr,421,num_1,1,0.516735941637,b,1,1.00013428321,PPPPP,1,24,2017_03_20_1739,f,5,negative,Correct
g,pictures/2605.jpg,noncongr,422,num_1,1,0.500190020772,b,0,0.783493765164,VVRVV,1,24,2017_03_20_1739,f,5,positive,Correct
g,pictures/5199.jpg,noncongr,423,num_1,1,0.583481277572,g,1,0.600147512043,VVPVV,1,24,2017_03_20_1739,f,5,positive,Correct
b,pictures/2710.jpg,noncongr,424,num_1,1,0.516996525461,b,1,0.683478683233,XXPXX,1,24,2017_03_20_1739,f,5,negative,Correct
b,pictures/9332.jpg,congr,425,num_1,1,0.500057733152,b,1,0.716810866725,PPPPP,1,24,2017_03_20_1739,f,5,negative,Correct
g,pictures/4505.jpg,congr,426,num_1,1,0.500028652837,g,1,0.666816155193,RRRRR,1,24,2017_03_20_1739,f,5,positive,Correct
b,pictures/6838.jpg,congr,427,num_2,1,0.500187739963,b,1,0.716814002721,VVVVV,1,24,2017_03_20_1739,f,5,negative,Correct
b,pictures/9471.jpg,congr,428,num_2,1,0.616983952234,b,1,0.866816953523,VVVVV,1,24,2017_03_20_1739,f,5,negative,Correct
g,pictures/7240.jpg,noncongr,429,num_3,1,0.533451213734,g,1,0.850199471926,VVWVV,1,24,2017_03_20_1739,f,5,positive,Correct
g,pictures/6250.2.jpg,congr,430,num_1,1,0.500070848037,g,1,0.783571028151,RRRRR,1,24,2017_03_20_1739,f,5,positive,Correct
b,pictures/4621.jpg,noncongr,431,num_1,1,0.566922241822,g,0,1.10013282928,MMPMM,1,24,2017_03_20_1739,f,5,negative,Correct
g,pictures/5301.jpg,congr,432,num_1,1,0.500032929238,g,1,0.983492852887,PPPPP,1,24,2017_03_20_1739,f,5,positive,Correct
g,pictures/8620.jpg,noncongr,433,num_3,1,0.583470728947,g,1,0.683508048998,MMXMM,1,24,2017_03_20_1739,f,5,positive,Correct
b,pictures/9421.jpg,noncongr,434,num_3,1,0.650269664126,b,1,1.03346276027,VVWVV,1,24,2017_03_20_1739,f,5,negative,Correct
g,pictures/4623.jpg,congr,435,num_3,1,0.55017446843,g,1,0.766801586607,XXXXX,1,24,2017_03_20_1739,f,5,positive,Correct
b,pictures/9031.jpg,congr,436,num_3,1,0.500070848037,b,1,0.766816126881,XXXXX,1,24,2017_03_20_1739,f,5,negative,Correct
b,pictures/6242.jpg,noncongr,437,num_1,1,0.516917266883,b,1,0.866798992269,MMRMM,1,24,2017_03_20_1739,f,5,negative,Correct
g,pictures/4612.jpg,noncongr,438,num_2,1,0.60016547353,g,1,0.683459296357,XXVXX,1,24,2017_03_20_1739,f,5,positive,Correct
g,pictures/4617.jpg,noncongr,439,num_1,1,0.516870510066,g,1,0.80016627186,WWPWW,1,24,2017_03_20_1739,f,5,positive,Correct
b,pictures/9320.jpg,noncongr,440,num_1,1,0.616828856524,b,1,0.533467464615,WWRWW,1,24,2017_03_20_1739,f,5,negative,Correct
b,pictures/9415.jpg,congr,441,num_1,1,0.500036920654,b,1,0.683476687642,RRRRR,1,24,2017_03_20_1739,f,5,negative,Correct
b,pictures/6571.jpg,noncongr,442,num_2,1,0.516851693392,b,1,0.550138260238,XXVXX,1,24,2017_03_20_1739,f,5,negative,Correct
b,pictures/2750.jpg,noncongr,443,num_2,1,0.500049465336,b,1,0.683500350919,PPMPP,1,24,2017_03_20_1739,f,5,negative,Correct
b,pictures/9832.jpg,congr,444,num_3,1,0.616800916614,b,1,0.583489830839,WWWWW,1,24,2017_03_20_1739,f,5,negative,Correct
b,pictures/1220.jpg,noncongr,445,num_2,1,0.550172187621,b,1,0.600180013571,PPVPP,1,24,2017_03_20_1739,f,5,negative,Correct
b,pictures/2301.jpg,congr,446,num_2,1,0.500041482504,b,1,0.866922441637,VVVVV,1,24,2017_03_20_1739,f,5,negative,Correct
g,pictures/4597.jpg,noncongr,447,num_3,1,0.583494392456,g,1,0.733494492248,PPWPP,1,24,2017_03_20_1739,f,5,positive,Correct
b,pictures/7380.jpg,congr,448,num_2,1,0.633507635444,b,1,0.850137889851,VVVVV,1,24,2017_03_20_1739,f,5,negative,Correct
g,pictures/7450.jpg,congr,449,num_1,1,0.516833161702,b,0,1.08364193281,PPPPP,1,24,2017_03_20_1739,f,5,positive,Correct
b,pictures/2375.1.jpg,noncongr,450,num_2,0,0.500089949928,b,1,0.966808657395,VVPVV,1,24,2017_03_20_1739,f,5,negative,Error
b,pictures/6311.jpg,congr,451,num_3,1,0.566826162394,b,1,0.683502061758,WWWWW,1,24,2017_03_20_1739,f,5,negative,Correct
g,pictures/4006.jpg,congr,452,num_2,1,0.566844694084,g,1,0.583472439554,MMMMM,1,24,2017_03_20_1739,f,5,positive,Correct
g,pictures/5622.jpg,congr,453,num_2,1,0.816813689191,g,1,1.08347799908,VVVVV,1,24,2017_03_20_1739,f,5,positive,Correct
g,pictures/2389.jpg,noncongr,454,num_1,1,0.533484285465,g,1,0.949936578982,WWPWW,1,24,2017_03_20_1739,f,5,positive,Correct
b,pictures/2375.1.jpg,congr,455,num_2,1,0.50002409122,g,0,1.6834285052,MMMMM,1,24,2017_03_20_1739,f,5,negative,Correct
b,pictures/8230.jpg,noncongr,456,num_3,1,0.616830282146,b,1,0.66680703219,VVWVV,1,24,2017_03_20_1739,f,5,negative,Correct
b,pictures/9326.jpg,noncongr,457,num_2,1,0.566811622353,b,1,0.666826989269,XXVXX,1,24,2017_03_20_1739,f,5,negative,Correct
g,pictures/7260.jpg,congr,458,num_3,1,0.616847388446,g,1,0.650149921188,XXXXX,1,24,2017_03_20_1739,f,5,positive,Correct
g,pictures/4006.jpg,noncongr,459,num_2,1,0.500038346509,g,1,0.616835128982,PPMPP,1,24,2017_03_20_1739,f,5,positive,Correct
g,pictures/1640.jpg,noncongr,460,num_3,1,0.583521191962,g,1,0.966802384937,RRWRR,1,24,2017_03_20_1739,f,5,positive,Correct
g,pictures/4598.jpg,noncongr,461,num_3,1,0.650183563121,b,0,1.0001111899,VVXVV,1,24,2017_03_20_1739,f,5,positive,Correct
g,pictures/8350.jpg,congr,462,num_3,1,0.516806647182,g,1,0.65015647863,WWWWW,1,24,2017_03_20_1739,f,5,positive,Correct
g,pictures/7505.jpg,noncongr,463,num_3,1,0.500167782884,g,1,0.783473808086,MMWMM,1,24,2017_03_20_1739,f,5,positive,Correct
b,pictures/9007.jpg,congr,464,num_3,1,0.500028652837,b,1,0.783453851007,XXXXX,1,24,2017_03_20_1739,f,5,negative,Correct
b,pictures/2691.jpg,noncongr,465,num_3,1,0.500036350451,b,1,0.55023120367,MMXMM,1,24,2017_03_20_1739,f,5,negative,Correct
b,pictures/4621.jpg,congr,466,num_1,1,0.5335062386,g,0,0.75037398329,RRRRR,1,24,2017_03_20_1739,f,5,negative,Correct
b,pictures/7359.jpg,congr,467,num_3,1,0.50003863126,b,1,0.700147768715,WWWWW,1,24,2017_03_20_1739,f,5,negative,Correct
g,pictures/7240.jpg,congr,468,num_3,1,0.533497400116,g,1,0.750141054392,XXXXX,1,24,2017_03_20_1739,f,5,positive,Correct
b,pictures/9560.jpg,congr,469,num_3,1,0.500037205871,b,1,0.850154425716,XXXXX,1,24,2017_03_20_1739,f,5,negative,Correct
b,pictures/2141.jpg,congr,470,num_3,1,0.500052886317,b,1,0.733481377596,XXXXX,1,24,2017_03_20_1739,f,5,negative,Correct
g,pictures/8280.jpg,congr,471,num_1,1,0.500026371796,g,1,0.683855303563,PPPPP,1,24,2017_03_20_1739,f,5,positive,Correct
g,pictures/8040.jpg,noncongr,472,num_2,1,0.500025801826,g,1,0.750171275344,RRVRR,1,24,2017_03_20_1739,f,5,positive,Correct
b,pictures/2345.1.jpg,congr,473,num_3,1,0.500031503849,b,1,0.60014237999,XXXXX,1,24,2017_03_20_1739,f,5,negative,Correct
g,pictures/7440.jpg,noncongr,474,num_3,1,0.500046614325,g,1,0.816827659262,VVXVV,1,24,2017_03_20_1739,f,5,positive,Correct
g,pictures/8041.jpg,noncongr,475,num_2,1,0.550153941149,g,1,0.666617724113,WWMWW,1,24,2017_03_20_1739,f,5,positive,Correct
g,pictures/4225.jpg,congr,476,num_1,1,0.500052316347,g,1,0.650379713625,PPPPP,1,24,2017_03_20_1739,f,5,positive,Correct
g,pictures/4150.jpg,congr,477,num_1,1,0.500046614092,b,0,1.33343872614,RRRRR,1,24,2017_03_20_1739,f,5,positive,Correct
b,pictures/2717.jpg,congr,478,num_1,1,0.500047469512,b,1,1.05014096899,RRRRR,1,24,2017_03_20_1739,f,5,negative,Correct
g,pictures/7570.jpg,congr,479,num_1,1,0.5000275122,b,0,1.21680416679,PPPPP,1,24,2017_03_20_1739,f,5,positive,Correct
b,pictures/9181.jpg,congr,480,num_2,1,0.550167626003,b,1,0.699993528193,VVVVV,1,24,2017_03_20_1739,f,5,negative,Correct
g,pictures/7220.jpg,noncongr,481,num_3,1,0.633494235808,g,1,1.3334706577,VVWVV,1,24,2017_03_20_1739,f,5,positive,Correct
g,pictures/7440.jpg,congr,482,num_3,1,0.616988514084,g,1,0.73349420703,WWWWW,1,24,2017_03_20_1739,f,5,positive,Correct
b,pictures/9590.jpg,noncongr,483,num_3,1,0.50002922304,b,1,0.544522312237,VVWVV,1,24,2017_03_20_1739,f,5,negative,Correct
g,pictures/8461.jpg,congr,484,num_2,1,0.516822042875,g,1,0.700140355853,MMMMM,1,24,2017_03_20_1739,f,5,positive,Correct
g,pictures/4572.jpg,noncongr,485,num_2,1,0.566839277279,g,1,0.733459139476,PPMPP,1,24,2017_03_20_1739,f,5,positive,Correct
b,pictures/9140.jpg,noncongr,486,num_2,1,0.500044903485,b,1,0.583501805086,RRMRR,1,24,2017_03_20_1739,f,5,negative,Correct
b,pictures/7135.jpg,congr,487,num_3,1,0.533491698327,b,1,1.18347027269,XXXXX,1,24,2017_03_20_1739,f,5,negative,Correct
b,pictures/2276.jpg,congr,488,num_3,1,0.583507507108,b,1,1.08349054353,XXXXX,1,24,2017_03_20_1739,f,5,negative,Correct
g,pictures/7390.jpg,noncongr,489,num_1,1,0.500049750321,b,0,0.866814387729,WWPWW,1,24,2017_03_20_1739,f,5,positive,Correct
b,pictures/6831.jpg,noncongr,490,num_2,1,0.500036635669,b,1,1.05009991396,XXMXX,1,24,2017_03_20_1739,f,5,negative,Correct
g,pictures/7230.jpg,noncongr,491,num_3,1,0.500033784658,g,1,1.14994735597,VVXVV,1,24,2017_03_20_1739,f,5,positive,Correct
b,pictures/9302.jpg,noncongr,492,num_3,1,0.500189165352,b,1,0.683327864157,PPWPP,1,24,2017_03_20_1739,f,5,negative,Correct
g,pictures/2158.jpg,congr,493,num_1,1,0.500200284412,g,1,0.783504314022,PPPPP,1,24,2017_03_20_1739,f,5,positive,Correct
g,pictures/4624.jpg,congr,494,num_2,1,0.616835128982,g,1,0.633494235808,VVVVV,1,24,2017_03_20_1739,f,5,positive,Correct
b,pictures/9419.jpg,noncongr,495,num_2,1,0.500049180118,b,1,0.633471997688,PPVPP,1,24,2017_03_20_1739,f,5,negative,Correct
b,pictures/7136.jpg,noncongr,496,num_2,1,0.500039201695,b,1,0.833493323298,RRVRR,1,24,2017_03_20_1739,f,5,negative,Correct
b,pictures/9395.jpg,noncongr,497,num_3,1,0.633445197949,b,1,0.683500921354,RRWRR,1,24,2017_03_20_1739,f,5,negative,Correct
b,pictures/6244.jpg,noncongr,498,num_2,1,0.55017446843,b,1,0.733477100963,XXMXX,1,24,2017_03_20_1739,f,5,negative,Correct
g,pictures/2155.jpg,noncongr,499,num_3,1,0.566822741181,g,1,0.616796640214,RRWRR,1,24,2017_03_20_1739,f,5,positive,Correct
b,pictures/9925.jpg,noncongr,500,num_1,1,0.600207953714,b,1,0.699666230474,MMPMM,1,24,2017_03_20_1739,f,6,negative,Correct
b,pictures/2120.jpg,noncongr,501,num_2,1,0.516812064219,b,1,0.766820688499,RRVRR,1,24,2017_03_20_1739,f,6,negative,Correct
g,pictures/8220.jpg,congr,502,num_3,1,0.500027797418,g,1,0.68349065748,XXXXX,1,24,2017_03_20_1739,f,6,positive,Correct
g,pictures/7481.jpg,noncongr,503,num_3,1,0.51687250589,g,1,0.900227540173,RRWRR,1,24,2017_03_20_1739,f,6,positive,Correct
b,pictures/2700.jpg,noncongr,504,num_2,1,0.516845706152,b,1,0.916825349908,XXMXX,1,24,2017_03_20_1739,f,6,negative,Correct
g,pictures/1640.jpg,congr,505,num_2,1,0.500280683395,g,1,0.733491926221,MMMMM,1,24,2017_03_20_1739,f,6,positive,Correct
g,pictures/8350.jpg,noncongr,506,num_3,1,0.566948756343,g,1,1.08383836853,VVWVV,1,24,2017_03_20_1739,f,6,positive,Correct
b,pictures/9912.jpg,congr,507,num_1,1,0.533572097076,b,1,0.866797566647,PPPPP,1,24,2017_03_20_1739,f,6,negative,Correct
b,pictures/9495.jpg,congr,508,num_1,1,0.533508519409,b,1,0.933510400821,RRRRR,1,24,2017_03_20_1739,f,6,negative,Correct
g,pictures/4653.jpg,congr,509,num_1,1,0.550149949733,g,1,0.650136236101,PPPPP,1,24,2017_03_20_1739,f,6,positive,Correct
b,pictures/2691.jpg,congr,510,num_3,1,0.61684995424,b,1,1.20015190262,WWWWW,1,24,2017_03_20_1739,f,6,negative,Correct
g,pictures/4255.jpg,noncongr,511,num_1,1,0.533485996071,g,1,0.650173584698,VVPVV,1,24,2017_03_20_1739,f,6,positive,Correct
g,pictures/7515.jpg,congr,512,num_2,1,0.550157647347,b,0,1.25034960685,MMMMM,1,24,2017_03_20_1739,f,6,positive,Correct
g,pictures/8120.jpg,congr,513,num_2,1,0.616820873693,g,1,0.63346743607,VVVVV,1,24,2017_03_20_1739,f,6,positive,Correct
b,pictures/2900.jpg,congr,514,num_3,1,0.533619139111,b,1,0.833467663964,XXXXX,1,24,2017_03_20_1739,f,6,negative,Correct
g,pictures/7400.jpg,noncongr,515,num_2,1,0.566831864417,g,1,1.40011392697,WWVWW,1,24,2017_03_20_1739,f,6,positive,Correct
g,pictures/2208.jpg,congr,516,num_2,1,0.500049465336,g,1,2.73330404377,MMMMM,1,24,2017_03_20_1739,f,6,positive,Correct
b,pictures/9592.jpg,noncongr,517,num_1,1,0.500020670006,b,1,0.583474435378,XXPXX,1,24,2017_03_20_1739,f,6,negative,Correct
b,pictures/9291.jpg,noncongr,518,num_3,1,0.500186314341,b,1,0.550263705431,MMXMM,1,24,2017_03_20_1739,f,6,negative,Correct
b,pictures/3181.jpg,noncongr,519,num_1,1,0.500056592748,b,1,0.950126457028,XXPXX,1,24,2017_03_20_1739,f,6,negative,Correct
b,pictures/9043.jpg,congr,520,num_2,1,0.500039201695,b,1,0.633473708294,MMMMM,1,24,2017_03_20_1739,f,6,negative,Correct
b,pictures/6562.jpg,congr,521,num_1,1,0.500037491089,b,1,2.4000802848,RRRRR,1,24,2017_03_20_1739,f,6,negative,Correct
g,pictures/8162.jpg,congr,522,num_1,1,0.533513651229,g,1,1.10011885921,PPPPP,1,24,2017_03_20_1739,f,6,positive,Correct
b,pictures/9830.jpg,congr,523,num_2,1,0.500038916478,b,1,0.533478013473,MMMMM,1,24,2017_03_20_1739,f,6,negative,Correct
b,pictures/6213.jpg,noncongr,524,num_3,1,0.583501520101,b,1,0.666820146842,MMXMM,1,24,2017_03_20_1739,f,6,negative,Correct
g,pictures/7492.jpg,congr,525,num_3,1,0.533532467904,g,1,0.650126257678,XXXXX,1,24,2017_03_20_1739,f,6,positive,Correct
g,pictures/2208.jpg,noncongr,526,num_2,1,0.550147668691,g,1,1.11681930581,RRVRR,1,24,2017_03_20_1739,f,6,positive,Correct
g,pictures/8208.jpg,congr,527,num_3,1,0.666830410482,g,1,0.700174568221,XXXXX,1,24,2017_03_20_1739,f,6,positive,Correct
g,pictures/4530.jpg,noncongr,528,num_3,1,0.633582617622,g,1,0.65013338509,VVXVV,1,24,2017_03_20_1739,f,6,positive,Correct
b,pictures/1275.jpg,congr,529,num_1,1,0.566815043334,b,1,0.566819319967,RRRRR,1,24,2017_03_20_1739,f,6,negative,Correct
b,pictures/9903.jpg,congr,530,num_1,1,0.700138930464,b,1,0.550171332201,RRRRR,1,24,2017_03_20_1739,f,6,negative,Correct
g,pictures/8220.jpg,noncongr,531,num_3,1,0.650160184829,g,1,0.600145516219,MMWMM,1,24,2017_03_20_1739,f,6,positive,Correct
b,pictures/3185.jpg,noncongr,532,num_1,1,0.700199372135,b,1,0.616930353222,VVRVV,1,24,2017_03_20_1739,f,6,negative,Correct
g,pictures/2345.jpg,noncongr,533,num_1,1,0.55017874483,g,1,0.75015160325,XXRXX,1,24,2017_03_20_1739,f,6,positive,Correct
b,pictures/2751.jpg,noncongr,534,num_3,1,0.616912106751,b,1,1.30013106158,VVWVV,1,24,2017_03_20_1739,f,6,negative,Correct
b,pictures/9611.jpg,noncongr,535,num_1,1,0.566824166803,b,1,0.683487521484,WWRWW,1,24,2017_03_20_1739,f,6,negative,Correct
g,pictures/4645.jpg,noncongr,536,num_1,1,0.500188310165,g,1,0.700160027947,WWPWW,1,24,2017_03_20_1739,f,6,positive,Correct
g,pictures/2155.jpg,congr,537,num_3,1,0.516828600084,g,1,0.68348210468,XXXXX,1,24,2017_03_20_1739,f,6,positive,Correct
g,pictures/7279.jpg,congr,538,num_2,1,0.600147512043,g,1,0.950115908403,MMMMM,1,24,2017_03_20_1739,f,6,positive,Correct
b,pictures/9430.jpg,noncongr,539,num_2,1,0.500191161176,b,1,0.583528890042,XXMXX,1,24,2017_03_20_1739,f,6,negative,Correct
g,pictures/7289.jpg,noncongr,540,num_1,1,0.583505796501,g,1,0.816841059132,WWPWW,1,24,2017_03_20_1739,f,6,positive,Correct
g,pictures/4250.jpg,congr,541,num_1,1,0.516836868133,g,1,0.683498925762,PPPPP,1,24,2017_03_20_1739,f,6,positive,Correct
b,pictures/2692.jpg,noncongr,542,num_1,1,0.500058303354,b,1,0.566807630938,MMPMM,1,24,2017_03_20_1739,f,6,negative,Correct
g,pictures/8500.jpg,noncongr,543,num_1,1,0.50003435486,b,0,0.883480051765,XXRXX,1,24,2017_03_20_1739,f,6,positive,Correct
b,pictures/9561.jpg,noncongr,544,num_2,1,0.50005060574,b,1,0.783494905569,PPMPP,1,24,2017_03_20_1739,f,6,negative,Correct
b,pictures/9930.jpg,congr,545,num_1,1,0.566851821728,b,1,0.883488034597,PPPPP,1,24,2017_03_20_1739,f,6,negative,Correct
b,pictures/6825.jpg,congr,546,num_3,1,0.550159928156,b,1,0.766835228773,XXXXX,1,24,2017_03_20_1739,f,6,negative,Correct
g,pictures/7400.jpg,congr,547,num_1,1,0.500042622909,g,1,0.999870848609,RRRRR,1,24,2017_03_20_1739,f,6,positive,Correct
b,pictures/2717.jpg,noncongr,548,num_1,1,0.500207697041,b,1,0.600453712046,WWRWW,1,24,2017_03_20_1739,f,6,negative,Correct
g,pictures/5660.jpg,noncongr,549,num_2,1,0.500046044122,g,1,0.733504755888,RRMRR,1,24,2017_03_20_1739,f,6,positive,Correct
g,pictures/4320.jpg,noncongr,550,num_2,1,0.500093941344,g,1,0.800147169735,RRMRR,1,24,2017_03_20_1739,f,6,positive,Correct
b,pictures/9002.jpg,congr,551,num_3,1,0.583488405216,b,1,0.75011682068,XXXXX,1,24,2017_03_20_1739,f,6,negative,Correct
g,pictures/4310.jpg,noncongr,552,num_3,1,0.700183976674,g,1,0.583815417718,MMWMM,1,24,2017_03_20_1739,f,6,positive,Correct
g,pictures/2344.jpg,noncongr,553,num_3,1,0.550165630411,g,1,1.11681189318,VVWVV,1,24,2017_03_20_1739,f,6,positive,Correct
g,pictures/4597.jpg,congr,554,num_1,1,0.500047754496,g,1,0.733492496656,PPPPP,1,24,2017_03_20_1739,f,6,positive,Correct
g,pictures/4641.jpg,congr,555,num_3,1,0.53350680857,g,1,1.05013441155,XXXXX,1,24,2017_03_20_1739,f,6,positive,Correct
g,pictures/8090.jpg,congr,556,num_1,1,0.51683857874,g,1,0.649881924968,RRRRR,1,24,2017_03_20_1739,f,6,positive,Correct
b,pictures/3216.jpg,congr,557,num_3,1,0.550171332201,b,1,0.716811151942,WWWWW,1,24,2017_03_20_1739,f,6,negative,Correct
g,pictures/8467.jpg,noncongr,558,num_2,1,0.533490272705,g,1,0.766800731421,PPMPP,1,24,2017_03_20_1739,f,6,positive,Correct
g,pictures/2056.jpg,congr,559,num_1,1,0.50018118252,g,1,0.66682556388,RRRRR,1,24,2017_03_20_1739,f,6,positive,Correct
g,pictures/5660.jpg,congr,560,num_3,1,0.666879163124,g,1,0.666793632321,XXXXX,1,24,2017_03_20_1739,f,6,positive,Correct
b,pictures/2799.jpg,noncongr,561,num_3,1,0.533482289873,b,1,1.10013026325,MMXMM,1,24,2017_03_20_1739,f,6,negative,Correct
g,pictures/1595.jpg,noncongr,562,num_2,1,0.516789541114,g,1,0.58349268185,XXMXX,1,24,2017_03_20_1739,f,6,positive,Correct
b,pictures/9417.jpg,noncongr,563,num_3,1,0.533490842907,g,0,0.783477799501,PPWPP,1,24,2017_03_20_1739,f,6,negative,Correct
g,pictures/4619.jpg,congr,564,num_3,1,0.550163064385,g,1,0.78369191126,XXXXX,1,24,2017_03_20_1739,f,6,positive,Correct
b,pictures/3230.jpg,noncongr,565,num_3,1,0.500183748547,b,1,1.03361414978,PPXPP,1,24,2017_03_20_1739,f,6,negative,Correct
g,pictures/1659.jpg,noncongr,566,num_2,1,0.5168790631,g,1,0.716816853965,RRMRR,1,24,2017_03_20_1739,f,6,positive,Correct
b,pictures/9419.jpg,congr,567,num_1,1,0.566878336249,b,1,0.633480835706,RRRRR,1,24,2017_03_20_1739,f,6,negative,Correct
g,pictures/1720.jpg,noncongr,568,num_3,0,0.516918977723,g,1,1.56678311201,WWVWW,1,24,2017_03_20_1739,f,6,positive,Error
g,pictures/7660.jpg,noncongr,569,num_1,1,0.500190876191,b,0,1.35016654269,XXPXX,1,24,2017_03_20_1739,f,6,positive,Correct
b,pictures/6242.jpg,congr,570,num_1,1,0.516865948681,b,1,0.666799049359,PPPPP,1,24,2017_03_20_1739,f,6,negative,Correct
g,pictures/7291.jpg,congr,571,num_2,1,0.500038916478,g,1,0.800167127047,MMMMM,1,24,2017_03_20_1739,f,6,positive,Correct
g,pictures/7570.jpg,noncongr,572,num_3,1,0.583494392456,b,0,0.73348907521,RRXRR,1,24,2017_03_20_1739,f,6,positive,Correct
g,pictures/7470.jpg,congr,573,num_1,1,0.500040912302,b,0,0.966812363593,RRRRR,1,24,2017_03_20_1739,f,6,positive,Correct
g,pictures/4150.jpg,noncongr,574,num_2,1,0.500033214455,g,1,0.583476145985,WWVWW,1,24,2017_03_20_1739,f,6,positive,Correct
b,pictures/9290.jpg,noncongr,575,num_1,1,0.50004604389,b,1,0.633475703886,XXPXX,1,24,2017_03_20_1739,f,6,negative,Correct
g,pictures/7450.jpg,noncongr,576,num_2,0,0.500028082635,b,0,0.850154710701,WWPWW,1,24,2017_03_20_1739,f,6,positive,Error
g,pictures/8116.jpg,noncongr,577,num_3,1,0.566828443436,b,0,0.70016059815,RRXRR,1,24,2017_03_20_1739,f,6,positive,Correct
g,pictures/8503.jpg,noncongr,578,num_2,1,0.50001667859,b,0,0.766805863241,XXVXX,1,24,2017_03_20_1739,f,6,positive,Correct
g,pictures/5260.jpg,congr,579,num_3,1,0.60017060535,g,1,0.733499624068,WWWWW,1,24,2017_03_20_1739,f,6,positive,Correct
b,pictures/9424.jpg,noncongr,580,num_3,1,0.583491541212,b,1,1.38346508378,MMWMM,1,24,2017_03_20_1739,f,6,negative,Correct
g,pictures/5460.jpg,congr,581,num_2,1,0.600110733882,g,1,2.05010960763,MMMMM,1,24,2017_03_20_1739,f,6,positive,Correct
g,pictures/7499.jpg,congr,582,num_2,1,0.533523629652,g,1,1.08343466348,VVVVV,1,24,2017_03_20_1739,f,6,positive,Correct
b,pictures/9900.jpg,congr,583,num_1,1,0.500056022545,b,1,0.683483815053,PPPPP,1,24,2017_03_20_1739,f,6,negative,Correct
g,pictures/4623.jpg,noncongr,584,num_2,1,0.500022950582,g,1,0.600167184137,PPMPP,1,24,2017_03_20_1739,f,6,positive,Correct
b,pictures/6200.jpg,congr,585,num_3,1,0.583484128816,b,1,0.633499652613,WWWWW,1,24,2017_03_20_1739,f,6,negative,Correct
b,pictures/2753.jpg,congr,586,num_1,1,0.566820745589,b,1,0.600166613935,RRRRR,1,24,2017_03_20_1739,f,6,negative,Correct
b,pictures/9043.jpg,noncongr,587,num_3,1,0.66681872122,b,1,0.666844095336,RRXRR,1,24,2017_03_20_1739,f,6,negative,Correct
g,pictures/8130.jpg,noncongr,588,num_1,1,0.500044048298,g,1,0.883334934711,WWRWW,1,24,2017_03_20_1739,f,6,positive,Correct
b,pictures/9000.jpg,congr,589,num_1,1,0.500055737561,g,0,0.766810994828,PPPPP,1,24,2017_03_20_1739,f,6,negative,Correct
g,pictures/9156.jpg,noncongr,590,num_1,1,0.600170890335,b,0,0.63348881877,XXRXX,1,24,2017_03_20_1739,f,6,positive,Correct
b,pictures/9295.jpg,congr,591,num_2,1,0.500026372029,b,1,0.633502218639,MMMMM,1,24,2017_03_20_1739,f,6,negative,Correct
b,pictures/9912.jpg,noncongr,592,num_1,1,0.516824323684,b,1,0.633474848699,WWRWW,1,24,2017_03_20_1739,f,6,negative,Correct
b,pictures/9470.jpg,noncongr,593,num_1,1,0.500056307763,b,1,1.05014667078,MMPMM,1,24,2017_03_20_1739,f,6,negative,Correct
b,pictures/3185.jpg,congr,594,num_1,1,0.500032644253,b,1,0.600175452186,PPPPP,1,24,2017_03_20_1739,f,6,negative,Correct
g,pictures/7499.jpg,noncongr,595,num_2,0,0.500044903718,g,1,1.11678765924,PPWPP,1,24,2017_03_20_1739,f,6,positive,Error
b,pictures/9428.jpg,congr,596,num_3,1,0.500035780249,b,1,1.03345962404,WWWWW,1,24,2017_03_20_1739,f,6,negative,Correct
b,pictures/3220.jpg,congr,597,num_3,1,0.566834715428,b,1,1.00014996389,XXXXX,1,24,2017_03_20_1739,f,6,negative,Correct
b,pictures/9430.jpg,congr,598,num_2,1,0.716958549805,b,1,1.25012865267,VVVVV,1,24,2017_03_20_1739,f,6,negative,Correct
g,pictures/2224.jpg,congr,599,num_3,1,0.516844280763,g,1,0.750155309448,WWWWW,1,24,2017_03_20_1739,f,6,positive,Correct
b,pictures/9265.jpg,congr,0,num_2,0,0.516969745222,b,1,2.10007506754,XXXXX,2,31,2017_04_06_1617,f,1,negative,Error
g,pictures/8120.jpg,congr,1,num_3,0,0.76685349457,g,1,1.35009595135,VVVVV,2,31,2017_04_06_1617,f,1,positive,Error
b,pictures/9120.jpg,congr,2,num_3,1,0.516840593657,b,1,2.60009972897,WWWWW,2,31,2017_04_06_1617,f,1,negative,Correct
g,pictures/5270.jpg,congr,3,num_3,1,0.583488215401,g,1,3.00005502487,XXXXX,2,31,2017_04_06_1617,f,1,positive,Correct
g,pictures/7505.jpg,congr,4,num_2,1,0.633512349392,b,0,2.53341019701,MMMMM,2,31,2017_04_06_1617,f,1,positive,Correct
g,pictures/7470.jpg,noncongr,5,num_3,0,0.700184490008,b,0,2.31673750043,RRVRR,2,31,2017_04_06_1617,f,1,positive,Error
g,pictures/4533.jpg,noncongr,6,num_2,1,0.683353732398,g,1,1.61677168426,WWMWW,2,31,2017_04_06_1617,f,1,positive,Correct
g,pictures/7350.jpg,congr,7,num_2,0,0.716855019797,g,1,1.96686678031,PPPPP,2,31,2017_04_06_1617,f,1,positive,Error
g,pictures/7515.jpg,congr,8,num_2,0,0.750189522107,g,1,2.26672277489,RRRRR,2,31,2017_04_06_1617,f,1,positive,Error
g,pictures/8250.jpg,congr,9,num_1,1,0.683687587793,g,1,3.21669578995,RRRRR,2,31,2017_04_06_1617,f,1,positive,Correct
g,pictures/5199.jpg,congr,10,num_2,1,0.616853223706,g,1,1.68344553554,VVVVV,2,31,2017_04_06_1617,f,1,positive,Correct
g,pictures/2389.jpg,noncongr,11,num_1,1,0.73349789466,g,1,1.68360661861,VVRVV,2,31,2017_04_06_1617,f,1,positive,Correct
g,pictures/8461.jpg,noncongr,12,None,0,,g,1,1.65013327129,MMPMM,2,31,2017_04_06_1617,f,1,positive,Error
g,pictures/2056.jpg,congr,13,num_2,0,0.517562758934,g,1,1.30014423351,XXXXX,2,31,2017_04_06_1617,f,1,positive,Error
g,pictures/4320.jpg,congr,14,None,0,,b,0,5.18332336901,XXXXX,2,31,2017_04_06_1617,f,1,positive,Error
g,pictures/7481.jpg,noncongr,15,num_2,1,0.600259101426,g,1,2.03343229252,RRMRR,2,31,2017_04_06_1617,f,1,positive,Correct
g,pictures/8503.jpg,congr,16,num_3,1,0.550317647227,g,1,1.63348925608,XXXXX,2,31,2017_04_06_1617,f,1,positive,Correct
g,pictures/2391.jpg,congr,17,num_2,1,0.583533546713,g,1,1.45013281517,MMMMM,2,31,2017_04_06_1617,f,1,positive,Correct
g,pictures/8461.jpg,congr,18,num_3,1,0.700204447203,g,1,1.28345830814,WWWWW,2,31,2017_04_06_1617,f,1,positive,Correct
g,pictures/7282.jpg,noncongr,19,num_2,1,0.550164261949,g,1,0.833480018715,WWMWW,2,31,2017_04_06_1617,f,1,positive,Correct
b,pictures/2120.jpg,noncongr,20,num_3,1,0.716797143978,b,1,2.55007958645,MMWMM,2,31,2017_04_06_1617,f,1,negative,Correct
g,pictures/4600.jpg,congr,21,num_1,1,0.666832026327,g,1,1.53345524328,RRRRR,2,31,2017_04_06_1617,f,1,positive,Correct
b,pictures/9331.jpg,congr,22,num_1,1,0.600169294048,b,1,3.53316301294,PPPPP,2,31,2017_04_06_1617,f,1,negative,Correct
g,pictures/5260.jpg,congr,23,num_1,1,0.533550182532,g,1,1.20011478238,PPPPP,2,31,2017_04_06_1617,f,1,positive,Correct
g,pictures/8250.jpg,noncongr,24,num_3,1,0.600210633944,g,1,1.0499959088,PPWPP,2,31,2017_04_06_1617,f,1,positive,Correct
b,pictures/9423.jpg,noncongr,25,num_1,1,0.583485649549,b,1,2.95007907326,VVPVV,2,31,2017_04_06_1617,f,1,negative,Correct
g,pictures/8130.jpg,congr,26,num_3,1,0.800159201375,g,1,1.98345263459,XXXXX,2,31,2017_04_06_1617,f,1,positive,Correct
b,pictures/9409.jpg,congr,27,num_2,0,0.516872525157,g,0,3.15007696353,XXXXX,2,31,2017_04_06_1617,f,1,negative,Error
b,pictures/9426.jpg,congr,28,None,0,,b,1,5.16665626044,RRRRR,2,31,2017_04_06_1617,f,1,negative,Error
g,pictures/5622.jpg,noncongr,29,num_1,1,0.616848947131,g,1,3.60002617241,VVRVV,2,31,2017_04_06_1617,f,1,positive,Correct
g,pictures/7240.jpg,noncongr,30,num_3,1,0.616834406857,g,1,2.18344425259,PPXPP,2,31,2017_04_06_1617,f,1,positive,Correct
g,pictures/4653.jpg,noncongr,31,num_2,1,0.716903202177,g,1,1.93347411708,PPMPP,2,31,2017_04_06_1617,f,1,positive,Correct
b,pictures/9900.jpg,noncongr,32,None,0,,b,1,3.05005007831,WWMWW,2,31,2017_04_06_1617,f,1,negative,Error
g,pictures/4542.jpg,noncongr,33,num_2,0,0.70013716293,g,1,2.03346251341,WWPWW,2,31,2017_04_06_1617,f,1,positive,Error
b,pictures/9495.jpg,congr,34,num_2,1,0.500209122896,b,1,1.95011699194,VVVVV,2,31,2017_04_06_1617,f,1,negative,Correct
g,pictures/7482.jpg,noncongr,35,num_3,1,0.583521002263,g,1,2.88343601307,VVWVV,2,31,2017_04_06_1617,f,1,positive,Correct
b,pictures/9424.jpg,congr,36,None,0,,b,1,2.46676742198,RRRRR,2,31,2017_04_06_1617,f,1,negative,Error
b,pictures/3051.jpg,congr,37,num_3,0,0.733517281653,b,1,3.03342031816,VVVVV,2,31,2017_04_06_1617,f,1,negative,Error
b,pictures/9471.jpg,congr,38,num_1,1,0.583541529661,b,1,2.20011221647,PPPPP,2,31,2017_04_06_1617,f,1,negative,Correct
b,pictures/9427.jpg,noncongr,39,num_2,1,0.816829446063,b,1,3.81670514133,PPMPP,2,31,2017_04_06_1617,f,1,negative,Correct
g,pictures/8031.jpg,noncongr,40,num_2,1,0.550194482901,g,1,2.35012075532,XXMXX,2,31,2017_04_06_1617,f,1,positive,Correct
b,pictures/9295.jpg,congr,41,num_3,1,0.750163862831,g,0,3.56671390816,WWWWW,2,31,2017_04_06_1617,f,1,negative,Correct
b,pictures/9420.jpg,congr,42,num_3,1,0.750178403105,b,1,4.91670864809,WWWWW,2,31,2017_04_06_1617,f,1,negative,Correct
b,pictures/9042.jpg,congr,43,num_2,1,0.600254254648,b,1,6.68328644818,MMMMM,2,31,2017_04_06_1617,f,1,negative,Correct
g,pictures/7450.jpg,congr,44,num_3,1,0.766807022737,g,1,1.86679912539,WWWWW,2,31,2017_04_06_1617,f,1,positive,Correct
g,pictures/5814.jpg,noncongr,45,None,0,,g,1,5.16666709434,WWMWW,2,31,2017_04_06_1617,f,1,positive,Error
g,pictures/4610.jpg,congr,46,num_1,1,0.516728548217,g,1,1.8334971249,RRRRR,2,31,2017_04_06_1617,f,1,positive,Correct
g,pictures/8033.jpg,congr,47,num_3,0,0.750193513522,g,1,1.55012463272,VVVVV,2,31,2017_04_06_1617,f,1,positive,Error
g,pictures/5890.jpg,noncongr,48,num_3,1,0.700154839316,g,1,1.28349594172,PPWPP,2,31,2017_04_06_1617,f,1,positive,Correct
g,pictures/4606.jpg,congr,49,num_3,1,0.566829374817,g,1,0.816920393903,WWWWW,2,31,2017_04_06_1617,f,1,positive,Correct
g,pictures/4180.jpg,noncongr,50,num_3,0,0.500045758963,g,1,2.98386631871,WWMWW,2,31,2017_04_06_1617,f,1,positive,Error
b,pictures/9584.jpg,congr,51,None,0,,b,1,2.96672650974,RRRRR,2,31,2017_04_06_1617,f,1,negative,Error
g,pictures/8118.jpg,noncongr,52,num_2,0,0.700239514874,g,1,1.98336368252,PPXPP,2,31,2017_04_06_1617,f,1,positive,Error
b,pictures/6561.jpg,noncongr,53,num_2,1,0.616855789616,g,0,6.73332455213,XXMXX,2,31,2017_04_06_1617,f,1,negative,Correct
b,pictures/6831.jpg,noncongr,54,num_2,1,0.750153314031,g,0,3.01649547671,XXVXX,2,31,2017_04_06_1617,f,1,negative,Correct
g,pictures/4601.jpg,noncongr,55,num_2,0,0.666896174371,g,1,1.9499513472,VVWVV,2,31,2017_04_06_1617,f,1,positive,Error
g,pictures/8117.jpg,noncongr,56,num_2,1,0.650233912573,g,1,1.99969636556,WWVWW,2,31,2017_04_06_1617,f,1,positive,Correct
b,pictures/9140.jpg,noncongr,57,num_2,1,0.716774335771,b,1,5.01669162739,XXMXX,2,31,2017_04_06_1617,f,1,negative,Correct
b,pictures/7380.jpg,noncongr,58,None,0,,b,1,4.28338076017,MMRMM,2,31,2017_04_06_1617,f,1,negative,Error
g,pictures/7220.jpg,noncongr,59,None,0,,g,1,2.00011974317,RRWRR,2,31,2017_04_06_1617,f,1,positive,Error
b,pictures/9912.jpg,congr,60,num_1,1,0.617305681808,b,1,2.18343142298,PPPPP,2,31,2017_04_06_1617,f,1,negative,Correct
b,pictures/9430.jpg,congr,61,num_1,1,0.71688809176,b,1,2.89986648638,PPPPP,2,31,2017_04_06_1617,f,1,negative,Correct
b,pictures/9830.jpg,congr,62,num_3,1,0.817288461549,g,0,2.26674301719,XXXXX,2,31,2017_04_06_1617,f,1,negative,Correct
b,pictures/9592.jpg,noncongr,63,None,0,,b,1,3.91666816344,RRWRR,2,31,2017_04_06_1617,f,1,negative,Error
b,pictures/6242.jpg,noncongr,64,num_3,1,0.683367132267,b,1,2.01673638856,MMXMM,2,31,2017_04_06_1617,f,1,negative,Correct
g,pictures/5849.jpg,noncongr,65,num_1,1,0.600214340258,g,1,5.53317783831,WWPWW,2,31,2017_04_06_1617,f,1,positive,Correct
b,pictures/9621.jpg,noncongr,66,None,0,,b,1,5.41661214078,RRXRR,2,31,2017_04_06_1617,f,1,negative,Error
b,pictures/7359.jpg,noncongr,67,None,0,,b,1,3.20019033464,WWRWW,2,31,2017_04_06_1617,f,1,negative,Error
b,pictures/2753.jpg,noncongr,68,None,0,,b,1,2.95010701334,RRMRR,2,31,2017_04_06_1617,f,1,negative,Error
b,pictures/1275.jpg,noncongr,69,None,0,,b,1,2.20008598699,VVWVV,2,31,2017_04_06_1617,f,1,negative,Error
g,pictures/2655.jpg,noncongr,70,num_2,0,0.567304926226,g,1,2.00008923718,RRXRR,2,31,2017_04_06_1617,f,1,positive,Error
b,pictures/9832.jpg,congr,71,num_2,0,0.600174425868,b,1,1.71679856948,XXXXX,2,31,2017_04_06_1617,f,1,negative,Error
g,pictures/8260.jpg,noncongr,72,num_2,0,0.583481087873,g,1,1.80020795396,MMWMM,2,31,2017_04_06_1617,f,1,positive,Error
b,pictures/9332.jpg,noncongr,73,num_2,0,0.516711156932,b,1,3.53338197188,XXRXX,2,31,2017_04_06_1617,f,1,negative,Error
b,pictures/9611.jpg,noncongr,74,num_2,1,0.666836587945,b,1,2.40009414096,PPMPP,2,31,2017_04_06_1617,f,1,negative,Correct
b,pictures/6241.jpg,noncongr,75,num_2,1,0.58349591319,b,1,3.96659137105,XXVXX,2,31,2017_04_06_1617,f,1,negative,Correct
b,pictures/2345.1.jpg,congr,76,num_2,1,0.550171674637,b,1,7.19993032084,VVVVV,2,31,2017_04_06_1617,f,1,negative,Correct
b,pictures/9429.jpg,noncongr,77,num_1,1,0.750160156458,b,1,2.01678685175,XXRXX,2,31,2017_04_06_1617,f,1,negative,Correct
g,pictures/4572.jpg,congr,78,num_2,1,0.700229536218,g,1,1.583456569,MMMMM,2,31,2017_04_06_1617,f,1,positive,Correct
g,pictures/2362.jpg,noncongr,79,num_2,0,0.64976263768,g,1,2.33342855767,PPXPP,2,31,2017_04_06_1617,f,1,positive,Error
g,pictures/7451.jpg,congr,80,num_2,0,0.783618963556,g,1,2.18343912071,WWWWW,2,31,2017_04_06_1617,f,1,positive,Error
b,pictures/9008.jpg,noncongr,81,None,0,,b,1,4.03335645515,XXVXX,2,31,2017_04_06_1617,f,1,negative,Error
g,pictures/1659.jpg,congr,82,num_3,1,0.750157020346,g,1,1.98343780922,WWWWW,2,31,2017_04_06_1617,f,1,positive,Correct
b,pictures/9530.jpg,noncongr,83,num_3,1,0.716827649972,b,1,1.8501291658,VVWVV,2,31,2017_04_06_1617,f,1,negative,Correct
b,pictures/9145.jpg,congr,84,num_2,1,0.500189450802,b,1,2.81670200516,VVVVV,2,31,2017_04_06_1617,f,1,negative,Correct
g,pictures/4090.jpg,congr,85,num_3,1,0.633528600214,g,1,2.16723273823,WWWWW,2,31,2017_04_06_1617,f,1,positive,Correct
b,pictures/1271.jpg,noncongr,86,None,0,,b,1,2.06677563296,MMRMM,2,31,2017_04_06_1617,f,1,negative,Error
g,pictures/2346.jpg,noncongr,87,num_3,1,0.700162537105,g,1,2.05003895931,RRWRR,2,31,2017_04_06_1617,f,1,positive,Correct
b,pictures/3017.jpg,noncongr,88,num_2,0,0.58352014696,b,1,1.71680854808,RRWRR,2,31,2017_04_06_1617,f,1,negative,Error
g,pictures/4640.jpg,congr,89,num_3,0,0.566844485234,g,1,1.20011620794,VVVVV,2,31,2017_04_06_1617,f,1,positive,Error
g,pictures/2300.jpg,noncongr,90,num_1,1,0.783493233263,g,1,2.40008558787,MMRMM,2,31,2017_04_06_1617,f,1,positive,Correct
g,pictures/1660.jpg,noncongr,91,None,0,,b,0,2.43348338292,VVRVV,2,31,2017_04_06_1617,f,1,positive,Error
g,pictures/4525.jpg,noncongr,92,None,0,,g,1,2.20008484658,RRMRR,2,31,2017_04_06_1617,f,1,positive,Error
g,pictures/8220.jpg,noncongr,93,num_2,1,0.633494958107,g,1,1.61680418596,XXVXX,2,31,2017_04_06_1617,f,1,positive,Correct
b,pictures/9520.jpg,noncongr,94,None,0,,b,1,2.48338862904,MMWMM,2,31,2017_04_06_1617,f,1,negative,Error
g,pictures/5820.jpg,noncongr,95,num_2,1,0.566829089716,g,1,1.40013833187,WWVWW,2,31,2017_04_06_1617,f,1,positive,Correct
b,pictures/2692.jpg,congr,96,num_2,1,0.500222522707,b,1,2.68339849357,MMMMM,2,31,2017_04_06_1617,f,1,negative,Correct
b,pictures/3160.jpg,noncongr,97,num_2,1,0.516689774231,b,1,2.3834401471,WWMWW,2,31,2017_04_06_1617,f,1,negative,Correct
g,pictures/1640.jpg,noncongr,98,num_2,0,0.600148766651,g,1,1.65010960778,PPWPP,2,31,2017_04_06_1617,f,1,positive,Error
g,pictures/8090.jpg,noncongr,99,num_2,1,0.533494302363,g,1,1.35014356353,PPMPP,2,31,2017_04_06_1617,f,1,positive,Correct
b,pictures/9428.jpg,congr,100,num_2,0,0.650126999011,b,1,3.38339681149,XXXXX,2,31,2017_04_06_1617,f,2,negative,Error
g,pictures/4503.jpg,congr,101,num_1,1,0.5167242717,g,1,1.46679735777,PPPPP,2,31,2017_04_06_1617,f,2,positive,Correct
g,pictures/4150.jpg,noncongr,102,num_2,0,0.566815404745,g,1,2.21677675907,PPXPP,2,31,2017_04_06_1617,f,2,positive,Error
g,pictures/4225.jpg,congr,103,num_2,0,0.600184689567,g,1,1.68344211433,XXXXX,2,31,2017_04_06_1617,f,2,positive,Error
g,pictures/8500.jpg,congr,104,num_3,0,0.700157690386,g,1,1.85013030627,VVVVV,2,31,2017_04_06_1617,f,2,positive,Error
g,pictures/2344.jpg,congr,105,num_2,0,0.800269251107,g,1,2.50005231635,WWWWW,2,31,2017_04_06_1617,f,2,positive,Error
g,pictures/5301.jpg,noncongr,106,num_3,1,0.750137918512,g,1,1.63345703942,MMWMM,2,31,2017_04_06_1617,f,2,positive,Correct
g,pictures/8021.jpg,congr,107,None,0,,g,1,1.16680194798,VVVVV,2,31,2017_04_06_1617,f,2,positive,Error
b,pictures/9395.jpg,noncongr,108,num_2,1,0.766824128921,b,1,2.81658967462,RRMRR,2,31,2017_04_06_1617,f,2,negative,Correct
b,pictures/2691.jpg,noncongr,109,num_2,0,0.616852653446,g,0,1.85008212388,WWPWW,2,31,2017_04_06_1617,f,2,negative,Error
b,pictures/9330.jpg,noncongr,110,None,0,,g,0,1.06680984527,PPWPP,2,31,2017_04_06_1617,f,2,negative,Error
g,pictures/1999.jpg,noncongr,111,None,0,,g,1,0.966830002028,MMXMM,2,31,2017_04_06_1617,f,2,positive,Error
g,pictures/1722.jpg,noncongr,112,None,0,,g,1,1.74966122658,RRMRR,2,31,2017_04_06_1617,f,2,positive,Error
b,pictures/2276.jpg,noncongr,113,num_2,1,0.633568514604,b,1,3.11667973862,XXMXX,2,31,2017_04_06_1617,f,2,negative,Correct
b,pictures/9920.jpg,congr,114,num_2,1,0.783506918175,b,1,3.81672709418,MMMMM,2,31,2017_04_06_1617,f,2,negative,Correct
b,pictures/9341.jpg,congr,115,num_1,0,0.53351226385,g,0,1.33345820836,MMMMM,2,31,2017_04_06_1617,f,2,negative,Error
b,pictures/9427.jpg,congr,116,None,0,,b,1,4.35003066278,RRRRR,2,31,2017_04_06_1617,f,2,negative,Error
g,pictures/7570.jpg,congr,117,num_1,1,0.650181168574,g,1,2.13341213576,PPPPP,2,31,2017_04_06_1617,f,2,positive,Correct
g,pictures/8531.jpg,noncongr,118,None,0,,g,1,2.10010072676,VVWVV,2,31,2017_04_06_1617,f,2,positive,Error
g,pictures/7477.jpg,noncongr,119,num_2,0,0.783646048279,g,1,1.95010644314,PPWPP,2,31,2017_04_06_1617,f,2,positive,Error
b,pictures/2457.jpg,congr,120,num_1,1,0.55012491782,g,0,2.31689715805,PPPPP,2,31,2017_04_06_1617,f,2,negative,Correct
b,pictures/9140.jpg,congr,121,None,0,,b,1,2.08344673296,PPPPP,2,31,2017_04_06_1617,f,2,negative,Error
b,pictures/3215.jpg,congr,122,num_2,0,0.750092872186,b,1,5.18344425259,XXXXX,2,31,2017_04_06_1617,f,2,negative,Error
g,pictures/4623.jpg,noncongr,123,num_2,1,0.566829659918,g,1,1.35013615084,WWMWW,2,31,2017_04_06_1617,f,2,positive,Correct
g,pictures/7501.jpg,noncongr,124,num_2,1,0.650650447758,g,1,1.16685184091,PPVPP,2,31,2017_04_06_1617,f,2,positive,Correct
b,pictures/1274.jpg,congr,125,num_2,0,0.616822432552,b,1,2.71671588969,XXXXX,2,31,2017_04_06_1617,f,2,negative,Error
g,pictures/4006.jpg,noncongr,126,num_1,1,0.500195152883,g,1,1.81676130655,XXRXX,2,31,2017_04_06_1617,f,2,positive,Correct
b,pictures/2345.1.jpg,noncongr,127,num_2,1,0.666834022035,b,1,1.56676693732,XXMXX,2,31,2017_04_06_1617,f,2,negative,Correct
b,pictures/9500.jpg,noncongr,128,num_2,0,0.716861577181,b,1,5.39997297229,PPWPP,2,31,2017_04_06_1617,f,2,negative,Error
g,pictures/4250.jpg,noncongr,129,num_1,1,0.73351899226,g,1,1.40023298602,WWRWW,2,31,2017_04_06_1617,f,2,positive,Correct
g,pictures/4597.jpg,noncongr,130,None,0,,g,1,1.55014401965,RRMRR,2,31,2017_04_06_1617,f,2,positive,Error
b,pictures/3216.jpg,noncongr,131,num_3,0,0.683531636547,b,1,2.20009653579,WWVWW,2,31,2017_04_06_1617,f,2,negative,Error
b,pictures/9043.jpg,congr,132,num_3,0,0.666836017685,b,1,1.78347327601,VVVVV,2,31,2017_04_06_1617,f,2,negative,Error
b,pictures/9421.jpg,noncongr,133,num_2,1,0.583250724827,b,1,3.21679215465,XXMXX,2,31,2017_04_06_1617,f,2,negative,Correct
g,pictures/4090.jpg,noncongr,134,num_3,1,0.75014190987,g,1,1.33349555684,MMWMM,2,31,2017_04_06_1617,f,2,positive,Correct
b,pictures/9415.jpg,congr,135,num_3,1,0.650146100903,b,1,2.25006963633,WWWWW,2,31,2017_04_06_1617,f,2,negative,Correct
b,pictures/9831.jpg,congr,136,num_2,0,0.516738811915,b,1,1.9003468845,PPPPP,2,31,2017_04_06_1617,f,2,negative,Error
b,pictures/1275.jpg,congr,137,num_1,1,0.71693313797,b,1,1.90012279374,RRRRR,2,31,2017_04_06_1617,f,2,negative,Correct
b,pictures/9220.jpg,noncongr,138,num_2,1,0.783517752017,b,1,2.50018602953,RRVRR,2,31,2017_04_06_1617,f,2,negative,Correct
g,pictures/5260.jpg,noncongr,139,num_2,0,0.666926680366,g,1,2.41676124948,RRXRR,2,31,2017_04_06_1617,f,2,positive,Error
b,pictures/9621.jpg,congr,140,None,0,,b,1,2.88353865006,RRRRR,2,31,2017_04_06_1617,f,2,negative,Error
g,pictures/7289.jpg,congr,141,num_1,1,0.633344994043,g,1,1.91681584669,RRRRR,2,31,2017_04_06_1617,f,2,positive,Correct
b,pictures/7361.jpg,congr,142,num_1,1,0.500202280411,b,1,4.10005853162,PPPPP,2,31,2017_04_06_1617,f,2,negative,Correct
g,pictures/8510.jpg,noncongr,143,None,0,,g,1,1.71687953867,MMWMM,2,31,2017_04_06_1617,f,2,positive,Error
b,pictures/9428.jpg,noncongr,144,num_2,0,0.600720397721,b,1,1.70015911589,XXRXX,2,31,2017_04_06_1617,f,2,negative,Error
g,pictures/2158.jpg,congr,145,num_3,1,0.650252444262,g,1,1.85015881655,XXXXX,2,31,2017_04_06_1617,f,2,positive,Correct
g,pictures/7488.jpg,noncongr,146,None,0,,g,1,4.55003054877,VVRVV,2,31,2017_04_06_1617,f,2,positive,Error
b,pictures/9102.jpg,congr,147,num_3,1,0.633541144722,b,1,1.65011217369,WWWWW,2,31,2017_04_06_1617,f,2,negative,Correct
b,pictures/1220.jpg,noncongr,148,None,0,,b,1,13.6663604663,XXRXX,2,31,2017_04_06_1617,f,2,negative,Error
b,pictures/6220.jpg,noncongr,149,None,0,,b,1,2.0001174623,RRMRR,2,31,2017_04_06_1617,f,2,negative,Error
b,pictures/3220.jpg,noncongr,150,num_1,0,0.500060299237,b,1,1.81678867637,VVWVV,2,31,2017_04_06_1617,f,2,negative,Error
b,pictures/2141.jpg,noncongr,151,num_2,0,0.516866823076,b,1,3.30006440467,PPWPP,2,31,2017_04_06_1617,f,2,negative,Error
b,pictures/2490.jpg,noncongr,152,num_2,0,0.500208552694,b,1,2.81637470715,MMWMM,2,31,2017_04_06_1617,f,2,negative,Error
g,pictures/8220.jpg,congr,153,num_3,0,0.516948077362,g,1,1.40022215212,VVVVV,2,31,2017_04_06_1617,f,2,positive,Error
b,pictures/9590.jpg,noncongr,154,num_1,1,0.650601695117,b,1,1.76679276762,XXPXX,2,31,2017_04_06_1617,f,2,negative,Correct
g,pictures/7451.jpg,noncongr,155,num_3,1,0.583497623797,g,1,1.68350797304,PPXPP,2,31,2017_04_06_1617,f,2,positive,Correct
b,pictures/9435.jpg,noncongr,156,num_1,1,0.683620873722,b,1,1.63354228518,MMRMM,2,31,2017_04_06_1617,f,2,negative,Correct
g,pictures/5994.jpg,noncongr,157,num_2,1,0.584194129915,g,1,2.21672715124,RRMRR,2,31,2017_04_06_1617,f,2,positive,Correct
b,pictures/9186.jpg,noncongr,158,num_1,1,0.617443386407,b,1,6.54987744859,VVPVV,2,31,2017_04_06_1617,f,2,negative,Correct
b,pictures/9901.jpg,noncongr,159,num_2,0,0.616698412865,b,1,2.10017570882,MMXMM,2,31,2017_04_06_1617,f,2,negative,Error
b,pictures/9610.jpg,congr,160,num_1,1,0.650204261881,b,1,1.71681482031,PPPPP,2,31,2017_04_06_1617,f,2,negative,Correct
b,pictures/9470.jpg,congr,161,num_2,1,0.58354381047,b,1,2.13342696108,MMMMM,2,31,2017_04_06_1617,f,2,negative,Correct
g,pictures/5820.jpg,congr,162,num_2,0,0.600097448099,g,1,4.21668039437,XXXXX,2,31,2017_04_06_1617,f,2,positive,Error
g,pictures/7430.jpg,noncongr,163,num_1,1,0.71684817737,g,1,1.98321742477,XXRXX,2,31,2017_04_06_1617,f,2,positive,Correct
g,pictures/4575.jpg,noncongr,164,num_2,0,0.666912140208,g,1,1.23349233519,VVWVV,2,31,2017_04_06_1617,f,2,positive,Error
g,pictures/5622.jpg,congr,165,num_1,1,0.633486975217,g,1,2.71716122021,PPPPP,2,31,2017_04_06_1617,f,2,positive,Correct
g,pictures/4625.jpg,congr,166,num_1,1,0.716824228701,g,1,4.54996098368,RRRRR,2,31,2017_04_06_1617,f,2,positive,Correct
b,pictures/6200.jpg,congr,167,num_3,1,0.650123007596,b,1,1.88343145151,WWWWW,2,31,2017_04_06_1617,f,2,negative,Correct
b,pictures/9424.jpg,noncongr,168,num_2,1,0.66685597488,g,0,2.70007843181,WWMWW,2,31,2017_04_06_1617,f,2,negative,Correct
g,pictures/8540.jpg,congr,169,num_2,0,0.733567459683,g,1,3.76672035153,XXXXX,2,31,2017_04_06_1617,f,2,positive,Error
b,pictures/9000.jpg,noncongr,170,num_2,0,0.750044119661,g,0,1.46677255386,VVXVV,2,31,2017_04_06_1617,f,2,negative,Error
g,pictures/4598.jpg,congr,171,num_2,1,0.766853779613,g,1,3.01674465655,MMMMM,2,31,2017_04_06_1617,f,2,positive,Correct
g,pictures/4530.jpg,noncongr,172,num_1,1,0.733495898952,g,1,5.58322421025,MMPMM,2,31,2017_04_06_1617,f,2,positive,Correct
g,pictures/1340.jpg,congr,173,num_2,1,0.633494102804,g,1,1.55025007791,VVVVV,2,31,2017_04_06_1617,f,2,positive,Correct
g,pictures/2208.jpg,noncongr,174,num_2,1,0.75013934396,g,1,1.78369508596,PPVPP,2,31,2017_04_06_1617,f,2,positive,Correct
b,pictures/9006.jpg,congr,175,None,0,,b,1,3.55005307187,XXXXX,2,31,2017_04_06_1617,f,2,negative,Error
b,pictures/6200.jpg,noncongr,176,num_2,1,0.716819667025,b,1,1.51678642409,PPVPP,2,31,2017_04_06_1617,f,2,negative,Correct
g,pictures/5270.jpg,noncongr,177,None,0,,g,1,2.81670000945,VVRVV,2,31,2017_04_06_1617,f,2,positive,Error
g,pictures/2398.jpg,congr,178,num_1,1,0.499551960966,g,1,1.75013991416,PPPPP,2,31,2017_04_06_1617,f,2,positive,Correct
g,pictures/8120.jpg,noncongr,179,num_2,0,0.566861591418,g,1,2.15011174604,XXRXX,2,31,2017_04_06_1617,f,2,positive,Error
g,pictures/1720.jpg,noncongr,180,num_2,1,0.516723131295,g,1,1.33396227006,RRMRR,2,31,2017_04_06_1617,f,2,positive,Correct
g,pictures/8467.jpg,noncongr,181,None,0,,g,1,1.93344845786,MMWMM,2,31,2017_04_06_1617,f,2,positive,Error
g,pictures/5215.jpg,congr,182,num_1,1,0.499599288043,g,1,2.36677503423,RRRRR,2,31,2017_04_06_1617,f,2,positive,Correct
g,pictures/4535.jpg,noncongr,183,num_2,1,0.750163007528,g,1,1.56680400064,PPMPP,2,31,2017_04_06_1617,f,2,positive,Correct
b,pictures/9561.jpg,congr,184,num_2,1,0.816806637857,b,1,2.93341823696,MMMMM,2,31,2017_04_06_1617,f,2,negative,Correct
g,pictures/7250.jpg,congr,185,num_2,0,0.616847806727,g,1,2.03351981903,XXXXX,2,31,2017_04_06_1617,f,2,positive,Error
g,pictures/4505.jpg,congr,186,num_2,1,0.616876887216,g,1,1.15013483935,MMMMM,2,31,2017_04_06_1617,f,2,positive,Correct
b,pictures/6242.jpg,congr,187,num_1,1,0.500201425108,g,0,1.53351853607,PPPPP,2,31,2017_04_06_1617,f,2,negative,Correct
b,pictures/9331.jpg,noncongr,188,num_2,1,0.516814079077,g,0,2.23344785912,RRMRR,2,31,2017_04_06_1617,f,2,negative,Correct
b,pictures/9941.jpg,congr,189,num_2,1,0.650154368894,b,1,1.45012796839,VVVVV,2,31,2017_04_06_1617,f,2,negative,Correct
b,pictures/2700.jpg,congr,190,num_2,1,0.500215965381,b,1,2.33338208596,MMMMM,2,31,2017_04_06_1617,f,2,negative,Correct
g,pictures/7430.jpg,congr,191,num_1,1,0.633493817702,g,1,1.13345746708,PPPPP,2,31,2017_04_06_1617,f,2,positive,Correct
g,pictures/8531.jpg,congr,192,num_2,0,0.716670843423,g,1,1.45005925861,RRRRR,2,31,2017_04_06_1617,f,2,positive,Error
g,pictures/7499.jpg,noncongr,193,num_1,1,0.516763900989,g,1,1.35015354207,XXPXX,2,31,2017_04_06_1617,f,2,positive,Correct
b,pictures/6562.jpg,noncongr,194,num_1,1,0.533534216753,b,1,1.7834707101,MMRMM,2,31,2017_04_06_1617,f,2,negative,Correct
g,pictures/1731.jpg,noncongr,195,num_2,0,0.633515770605,g,1,1.08347923472,RRWRR,2,31,2017_04_06_1617,f,2,positive,Error
b,pictures/2456.jpg,congr,196,num_1,1,0.716843900853,g,0,1.65008765482,RRRRR,2,31,2017_04_06_1617,f,2,negative,Correct
b,pictures/9911.jpg,noncongr,197,num_1,1,0.600151902763,b,1,1.6169681201,MMRMM,2,31,2017_04_06_1617,f,2,negative,Correct
b,pictures/9265.jpg,noncongr,198,num_1,1,0.683289299253,b,1,1.88343971944,MMRMM,2,31,2017_04_06_1617,f,2,negative,Correct
b,pictures/6825.jpg,noncongr,199,num_1,1,0.533552178182,b,1,1.75010399125,MMPMM,2,31,2017_04_06_1617,f,2,negative,Correct
g,pictures/5849.jpg,congr,200,num_2,0,0.550661196117,g,1,1.18369143666,RRRRR,2,31,2017_04_06_1617,f,3,positive,Error
g,pictures/1340.jpg,noncongr,201,num_2,0,0.500218816334,g,1,1.15033156029,PPXPP,2,31,2017_04_06_1617,f,3,positive,Error
g,pictures/2391.jpg,noncongr,202,num_1,1,0.650136977609,g,1,1.18352721748,XXPXX,2,31,2017_04_06_1617,f,3,positive,Correct
b,pictures/9031.jpg,congr,203,num_2,1,0.783469284594,b,1,8.13275497383,VVVVV,2,31,2017_04_06_1617,f,3,negative,Correct
g,pictures/7352.jpg,noncongr,204,None,0,,g,1,1.4164376579,RRXRR,2,31,2017_04_06_1617,f,3,positive,Error
g,pictures/8162.jpg,noncongr,205,None,0,,g,1,4.05002955091,MMXMM,2,31,2017_04_06_1617,f,3,positive,Error
b,pictures/2710.jpg,noncongr,206,None,0,,g,0,3.60008860996,WWMWW,2,31,2017_04_06_1617,f,3,negative,Error
b,pictures/9186.jpg,congr,207,num_2,1,0.815669362841,b,1,2.44944400684,MMMMM,2,31,2017_04_06_1617,f,3,negative,Correct
b,pictures/9435.jpg,congr,208,None,0,,g,0,3.30007438333,XXXXX,2,31,2017_04_06_1617,f,3,negative,Error
g,pictures/4520.jpg,noncongr,209,num_2,1,0.583500474808,g,1,2.38341876434,XXMXX,2,31,2017_04_06_1617,f,3,positive,Correct
g,pictures/4225.jpg,noncongr,210,num_2,1,0.583505321585,g,1,1.43356748822,RRMRR,2,31,2017_04_06_1617,f,3,positive,Correct
b,pictures/9421.jpg,congr,211,num_2,1,0.517054705822,b,1,1.81677299575,MMMMM,2,31,2017_04_06_1617,f,3,negative,Correct
g,pictures/4542.jpg,congr,212,num_2,1,0.500065431115,g,1,1.78356479399,MMMMM,2,31,2017_04_06_1617,f,3,positive,Correct
b,pictures/3220.jpg,congr,213,num_2,1,0.566904071777,g,0,1.06689366547,MMMMM,2,31,2017_04_06_1617,f,3,negative,Correct
b,pictures/6220.jpg,congr,214,None,0,,b,1,1.30014879513,WWWWW,2,31,2017_04_06_1617,f,3,negative,Error
b,pictures/9001.jpg,congr,215,num_1,1,0.633481273195,b,1,2.30009576603,PPPPP,2,31,2017_04_06_1617,f,3,negative,Correct
g,pictures/2056.jpg,noncongr,216,None,0,,g,1,1.19969083456,PPVPP,2,31,2017_04_06_1617,f,3,positive,Error
b,pictures/6836.jpg,congr,217,num_1,1,0.616847806668,b,1,1.90012136823,PPPPP,2,31,2017_04_06_1617,f,3,negative,Correct
g,pictures/4614.jpg,congr,218,num_1,1,0.56684334483,g,1,1.41726303042,PPPPP,2,31,2017_04_06_1617,f,3,positive,Correct
b,pictures/2900.jpg,noncongr,219,num_2,0,0.766829831002,b,1,1.53344669018,RRXRR,2,31,2017_04_06_1617,f,3,negative,Error
g,pictures/4220.jpg,congr,220,None,0,,g,1,3.13338248507,MMMMM,2,31,2017_04_06_1617,f,3,positive,Error
g,pictures/7505.jpg,noncongr,221,None,0,,b,0,1.98300958489,PPXPP,2,31,2017_04_06_1617,f,3,positive,Error
g,pictures/8130.jpg,noncongr,222,num_1,1,0.633510638785,g,1,2.66673252539,WWPWW,2,31,2017_04_06_1617,f,3,positive,Correct
g,pictures/4525.jpg,congr,223,None,0,,g,1,2.01673610345,RRRRR,2,31,2017_04_06_1617,f,3,positive,Error
b,pictures/4621.jpg,congr,224,num_2,1,0.783581900178,g,0,4.06671747199,VVVVV,2,31,2017_04_06_1617,f,3,negative,Correct
b,pictures/9901.jpg,congr,225,num_1,1,0.700143150112,b,1,1.95008192427,PPPPP,2,31,2017_04_06_1617,f,3,negative,Correct
g,pictures/7400.jpg,congr,226,None,0,,g,1,2.98388256959,XXXXX,2,31,2017_04_06_1617,f,3,positive,Error
g,pictures/4007.jpg,congr,227,None,0,,g,1,3.4500777903,WWWWW,2,31,2017_04_06_1617,f,3,positive,Error
g,pictures/7508.jpg,noncongr,228,None,0,,g,1,2.33341829397,MMRMM,2,31,2017_04_06_1617,f,3,positive,Error
b,pictures/6561.jpg,congr,229,num_1,1,0.683484594629,g,0,1.5999594584,PPPPP,2,31,2017_04_06_1617,f,3,negative,Correct
g,pictures/8620.jpg,congr,230,None,0,,b,0,2.73349675426,RRRRR,2,31,2017_04_06_1617,f,3,positive,Error
g,pictures/8510.jpg,congr,231,num_2,0,0.700162822206,g,1,1.21687454934,XXXXX,2,31,2017_04_06_1617,f,3,positive,Error
b,pictures/9922.jpg,noncongr,232,num_2,0,0.48292163061,g,0,1.566771499,MMRMM,2,31,2017_04_06_1617,f,3,negative,Error
b,pictures/2053.jpg,noncongr,233,num_3,1,0.65025985695,g,0,4.30002791161,MMWMM,2,31,2017_04_06_1617,f,3,negative,Correct
b,pictures/2278.jpg,congr,234,num_1,1,0.666841434664,b,1,2.23345099523,RRRRR,2,31,2017_04_06_1617,f,3,negative,Correct
b,pictures/9046.jpg,noncongr,235,num_2,1,0.633481843397,g,0,1.83346433804,XXMXX,2,31,2017_04_06_1617,f,3,negative,Correct
b,pictures/9180.jpg,noncongr,236,num_1,1,0.51685456367,b,1,2.16678341624,VVPVV,2,31,2017_04_06_1617,f,3,negative,Correct
g,pictures/2344.jpg,noncongr,237,num_2,1,0.716832781793,g,1,1.55012862413,PPVPP,2,31,2017_04_06_1617,f,3,positive,Correct
