Participant	Block	Trial	Stimulus	Condition	CorrectResp	Code_CorrResp	Response_Code	Response_Time
1	1	1	-->--	neutral	right	3	3	447
1	1	2	--<--	neutral	left	2	2	386
1	1	3	-->--	neutral	right	3	3	364
1	1	4	--<--	neutral	left	2	2	367
1	1	5	-->--	neutral	right	3	3	340
1	1	6	>>>>>	congruent	right	3	3	417
1	1	7	--<--	neutral	left	2	2	353
1	1	8	>><>>	incongruent	left	2	3	354
1	1	9	>><>>	incongruent	left	2	2	450
1	1	10	--<--	neutral	left	2	2	452
1	1	11	>>>>>	congruent	right	3	3	406
1	1	12	--<--	neutral	left	2	2	402
1	1	13	<<<<<	congruent	left	2	2	350
1	1	14	>><>>	incongruent	left	2	2	477
1	1	15	-->--	neutral	right	3	3	390
1	1	16	>>>>>	congruent	right	3	3	445
1	1	17	<<><<	incongruent	right	3	2	432
1	1	18	-->--	neutral	right	3	3	384
1	1	19	>><>>	incongruent	left	2	2	484
1	1	20	>><>>	incongruent	left	2	2	462
1	1	21	<<><<	incongruent	right	3	3	497
1	1	22	<<<<<	congruent	left	2	2	384
1	1	23	-->--	neutral	right	3	3	405
1	1	24	--<--	neutral	left	2	2	354
1	1	25	-->--	neutral	right	3	3	387
1	1	26	>>>>>	congruent	right	3	3	426
1	1	27	<<<<<	congruent	left	2	2	364
1	1	28	-->--	neutral	right	3	3	399
1	1	29	<<><<	incongruent	right	3	2	348
1	1	30	<<<<<	congruent	left	2	2	380
1	1	31	--<--	neutral	left	2	2	449
1	1	32	<<><<	incongruent	right	3	3	435
1	1	33	>>>>>	congruent	right	3	3	513
1	1	34	<<><<	incongruent	right	3	3	527
1	1	35	<<<<<	congruent	left	2	2	433
1	1	36	<<><<	incongruent	right	3	3	558
1	1	37	<<><<	incongruent	right	3	3	484
1	1	38	<<><<	incongruent	right	3	3	478
1	1	39	>><>>	incongruent	left	2	3	484
1	1	40	--<--	neutral	left	2	2	400
1	1	41	<<<<<	congruent	left	2	2	394
1	1	42	--<--	neutral	left	2	2	325
1	1	43	>><>>	incongruent	left	2	2	572
1	1	44	>>>>>	congruent	right	3	3	473
1	1	45	>>>>>	congruent	right	3	3	448
1	1	46	<<<<<	congruent	left	2	2	371
1	1	47	>>>>>	congruent	right	3	3	703
1	1	48	--<--	neutral	left	2	2	398
1	1	49	-->--	neutral	right	3	3	352
1	1	50	--<--	neutral	left	2	2	369
1	1	51	<<<<<	congruent	left	2	2	420
1	1	52	-->--	neutral	right	3	3	370
1	1	53	>>>>>	congruent	right	3	3	381
1	1	54	>>>>>	congruent	right	3	3	396
1	1	55	-->--	neutral	right	3	3	357
1	1	56	-->--	neutral	right	3	3	343
1	1	57	>><>>	incongruent	left	2	2	437
1	1	58	<<<<<	congruent	left	2	2	365
1	1	59	>><>>	incongruent	left	2	3	377
1	1	60	<<><<	incongruent	right	3	3	478
1	1	61	>>>>>	congruent	right	3	3	734
1	1	62	<<><<	incongruent	right	3	3	458
1	1	63	<<><<	incongruent	right	3	3	432
1	1	64	--<--	neutral	left	2	2	416
1	1	65	>><>>	incongruent	left	2	2	491
1	1	66	>><>>	incongruent	left	2	2	500
1	1	67	<<<<<	congruent	left	2	2	387
1	1	68	<<<<<	congruent	left	2	2	349
1	1	69	<<><<	incongruent	right	3	3	413
1	1	70	>><>>	incongruent	left	2	3	410
1	1	71	<<<<<	congruent	left	2	2	374
1	1	72	>>>>>	congruent	right	3	3	395
1	2	1	<<><<	incongruent	right	3	3	550
1	2	2	>><>>	incongruent	left	2	2	523
1	2	3	<<<<<	congruent	left	2	2	429
1	2	4	--<--	neutral	left	2	2	429
1	2	5	--<--	neutral	left	2	2	414
1	2	6	-->--	neutral	right	3	3	411
1	2	7	>><>>	incongruent	left	2	2	453
1	2	8	--<--	neutral	left	2	2	379
1	2	9	>>>>>	congruent	right	3	3	385
1	2	10	<<<<<	congruent	left	2	2	376
1	2	11	>>>>>	congruent	right	3	3	444
1	2	12	>><>>	incongruent	left	2	3	368
1	2	13	-->--	neutral	right	3	3	419
1	2	14	<<><<	incongruent	right	3	3	604
1	2	15	<<><<	incongruent	right	3	3	587
1	2	16	-->--	neutral	right	3	3	395
1	2	17	<<<<<	congruent	left	2	2	435
1	2	18	<<<<<	congruent	left	2	2	372
1	2	19	>><>>	incongruent	left	2	3	394
1	2	20	-->--	neutral	right	3	3	512
1	2	21	<<<<<	congruent	left	2	2	463
1	2	22	>>>>>	congruent	right	3	2	467
1	2	23	>><>>	incongruent	left	2	2	427
1	2	24	--<--	neutral	left	2	2	412
1	2	25	<<><<	incongruent	right	3	3	531
1	2	26	<<<<<	congruent	left	2	2	407
1	2	27	-->--	neutral	right	3	3	402
1	2	28	--<--	neutral	left	2	2	382
1	2	29	<<<<<	congruent	left	2	2	388
1	2	30	<<><<	incongruent	right	3	3	474
1	2	31	-->--	neutral	right	3	3	434
1	2	32	>><>>	incongruent	left	2	2	777
1	2	33	<<><<	incongruent	right	3	3	603
1	2	34	>><>>	incongruent	left	2	2	476
1	2	35	--<--	neutral	left	2	2	436
1	2	36	>><>>	incongruent	left	2	2	514
1	2	37	<<<<<	congruent	left	2	2	371
1	2	38	<<<<<	congruent	left	2	2	266
1	2	39	--<--	neutral	left	2	2	376
1	2	40	-->--	neutral	right	3	3	397
1	2	41	>><>>	incongruent	left	2	2	421
1	2	42	--<--	neutral	left	2	2	451
1	2	43	<<<<<	congruent	left	2	2	468
1	2	44	--<--	neutral	left	2	2	475
1	2	45	>>>>>	congruent	right	3	3	638
1	2	46	>>>>>	congruent	right	3	3	485
1	2	47	>>>>>	congruent	right	3	3	400
1	2	48	-->--	neutral	right	3	3	519
1	2	49	-->--	neutral	right	3	3	426
1	2	50	<<><<	incongruent	right	3	2	395
1	2	51	<<><<	incongruent	right	3	3	465
1	2	52	-->--	neutral	right	3	3	425
1	2	53	<<<<<	congruent	left	2	2	440
1	2	54	--<--	neutral	left	2	2	412
1	2	55	--<--	neutral	left	2	2	376
1	2	56	<<><<	incongruent	right	3	3	616
1	2	57	<<><<	incongruent	right	3	3	492
1	2	58	>>>>>	congruent	right	3	3	392
1	2	59	>><>>	incongruent	left	2	2	432
1	2	60	<<><<	incongruent	right	3	3	447
1	2	61	-->--	neutral	right	3	3	417
1	2	62	>><>>	incongruent	left	2	2	493
1	2	63	>>>>>	congruent	right	3	3	441
1	2	64	<<<<<	congruent	left	2	2	350
1	2	65	-->--	neutral	right	3	3	445
1	2	66	>>>>>	congruent	right	3	3	385
1	2	67	>><>>	incongruent	left	2	3	328
1	2	68	--<--	neutral	left	2	2	435
1	2	69	<<><<	incongruent	right	3	3	747
1	2	70	>>>>>	congruent	right	3	3	630
1	2	71	>>>>>	congruent	right	3	3	539
1	2	72	>>>>>	congruent	right	3	3	386
2	1	1	>><>>	incongruent	left	2	3	788
2	1	2	-->--	neutral	right	3	3	506
2	1	3	>>>>>	congruent	right	3	3	457
2	1	4	<<><<	incongruent	right	3	2	430
2	1	5	<<<<<	congruent	left	2	2	414
2	1	6	-->--	neutral	right	3	3	458
2	1	7	>><>>	incongruent	left	2	3	525
2	1	8	>>>>>	congruent	right	3	3	463
2	1	9	>>>>>	congruent	right	3	3	374
2	1	10	<<<<<	congruent	left	2	2	395
2	1	11	<<<<<	congruent	left	2	2	372
2	1	12	<<<<<	congruent	left	2	2	378
2	1	13	<<><<	incongruent	right	3	2	354
2	1	14	--<--	neutral	left	2	2	387
2	1	15	>><>>	incongruent	left	2	3	520
2	1	16	>>>>>	congruent	right	3	3	458
2	1	17	>>>>>	congruent	right	3	3	415
2	1	18	<<<<<	congruent	left	2	2	398
2	1	19	>>>>>	congruent	right	3	3	406
2	1	20	>><>>	incongruent	left	2	3	479
2	1	21	--<--	neutral	left	2	2	410
2	1	22	>>>>>	congruent	right	3	3	499
2	1	23	-->--	neutral	right	3	3	806
2	1	24	-->--	neutral	right	3	3	402
2	1	25	--<--	neutral	left	2	2	350
2	1	26	--<--	neutral	left	2	2	324
2	1	27	-->--	neutral	right	3	3	396
2	1	28	<<><<	incongruent	right	3	2	389
2	1	29	>><>>	incongruent	left	2	3	351
2	1	30	<<><<	incongruent	right	3	2	352
2	1	31	--<--	neutral	left	2	2	416
2	1	32	<<><<	incongruent	right	3	2	382
2	1	33	<<<<<	congruent	left	2	2	326
2	1	34	--<--	neutral	left	2	2	369
2	1	35	>><>>	incongruent	left	2	3	608
2	1	36	<<><<	incongruent	right	3	2	388
2	1	37	<<<<<	congruent	left	2	2	724
2	1	38	>>>>>	congruent	right	3	3	322
2	1	39	>>>>>	congruent	right	3	3	366
2	1	40	-->--	neutral	right	3	3	479
2	1	41	--<--	neutral	left	2	2	441
2	1	42	>><>>	incongruent	left	2	3	412
2	1	43	<<<<<	congruent	left	2	2	345
2	1	44	<<><<	incongruent	right	3	2	422
2	1	45	-->--	neutral	right	3	3	434
2	1	46	<<><<	incongruent	right	3	2	356
2	1	47	-->--	neutral	right	3	3	389
2	1	48	<<<<<	congruent	left	2	2	382
2	1	49	>>>>>	congruent	right	3	3	326
2	1	50	<<><<	incongruent	right	3	2	308
2	1	51	--<--	neutral	left	2	2	459
2	1	52	<<><<	incongruent	right	3	2	306
2	1	53	<<<<<	congruent	left	2	2	332
2	1	54	-->--	neutral	right	3	3	409
2	1	55	>><>>	incongruent	left	2	3	436
2	1	56	--<--	neutral	left	2	2	373
2	1	57	--<--	neutral	left	2	2	411
2	1	58	<<><<	incongruent	right	3	2	406
2	1	59	>>>>>	congruent	right	3	3	339
2	1	60	>><>>	incongruent	left	2	3	337
2	1	61	<<<<<	congruent	left	2	2	353
2	1	62	>><>>	incongruent	left	2	3	527
2	1	63	>>>>>	congruent	right	3	3	371
2	1	64	-->--	neutral	right	3	3	374
2	1	65	<<><<	incongruent	right	3	2	334
2	1	66	>><>>	incongruent	left	2	3	301
2	1	67	>><>>	incongruent	left	2	3	341
2	1	68	--<--	neutral	left	2	2	372
2	1	69	<<<<<	congruent	left	2	2	345
2	1	70	--<--	neutral	left	2	2	375
2	1	71	-->--	neutral	right	3	3	365
2	1	72	-->--	neutral	right	3	3	385
2	2	1	--<--	neutral	left	2	2	333
2	2	2	--<--	neutral	left	2	2	395
2	2	3	>>>>>	congruent	right	3	3	338
2	2	4	<<><<	incongruent	right	3	2	372
2	2	5	-->--	neutral	right	3	3	328
2	2	6	>>>>>	congruent	right	3	3	326
2	2	7	>>>>>	congruent	right	3	3	354
2	2	8	<<><<	incongruent	right	3	2	402
2	2	9	--<--	neutral	left	2	2	335
2	2	10	<<<<<	congruent	left	2	2	412
2	2	11	>><>>	incongruent	left	2	3	394
2	2	12	>>>>>	congruent	right	3	3	340
2	2	13	-->--	neutral	right	3	3	371
2	2	14	>>>>>	congruent	right	3	3	374
2	2	15	<<><<	incongruent	right	3	2	350
2	2	16	>><>>	incongruent	left	2	3	398
2	2	17	<<><<	incongruent	right	3	2	407
2	2	18	<<<<<	congruent	left	2	2	371
2	2	19	<<><<	incongruent	right	3	2	374
2	2	20	-->--	neutral	right	3	3	365
2	2	21	<<><<	incongruent	right	3	2	401
2	2	22	-->--	neutral	right	3	3	364
2	2	23	<<<<<	congruent	left	2	2	352
2	2	24	>><>>	incongruent	left	2	3	385
2	2	25	<<<<<	congruent	left	2	2	375
2	2	26	<<><<	incongruent	right	3	2	382
2	2	27	--<--	neutral	left	2	2	341
2	2	28	<<><<	incongruent	right	3	2	450
2	2	29	--<--	neutral	left	2	2	405
2	2	30	<<<<<	congruent	left	2	2	385
2	2	31	>><>>	incongruent	left	2	3	500
2	2	32	-->--	neutral	right	3	3	496
2	2	33	--<--	neutral	left	2	2	319
2	2	34	<<<<<	congruent	left	2	2	426
2	2	35	<<><<	incongruent	right	3	2	379
2	2	36	>><>>	incongruent	left	2	3	385
2	2	37	>><>>	incongruent	left	2	3	501
2	2	38	--<--	neutral	left	2	2	340
2	2	39	<<<<<	congruent	left	2	2	402
2	2	40	>><>>	incongruent	left	2	3	397
2	2	41	<<<<<	congruent	left	2	2	389
2	2	42	>>>>>	congruent	right	3	3	352
2	2	43	--<--	neutral	left	2	2	385
2	2	44	<<<<<	congruent	left	2	2	422
2	2	45	>><>>	incongruent	left	2	3	419
2	2	46	>>>>>	congruent	right	3	3	386
2	2	47	--<--	neutral	left	2	2	394
2	2	48	--<--	neutral	left	2	2	496
2	2	49	-->--	neutral	right	3	3	335
2	2	50	<<<<<	congruent	left	2	2	710
2	2	51	-->--	neutral	right	3	3	321
2	2	52	--<--	neutral	left	2	2	302
2	2	53	>>>>>	congruent	right	3	3	372
2	2	54	-->--	neutral	right	3	3	331
2	2	55	-->--	neutral	right	3	3	735
2	2	56	>><>>	incongruent	left	2	3	600
2	2	57	-->--	neutral	right	3	3	348
2	2	58	<<><<	incongruent	right	3	2	303
2	2	59	<<><<	incongruent	right	3	2	390
2	2	60	>><>>	incongruent	left	2	3	414
2	2	61	<<<<<	congruent	left	2	2	504
2	2	62	>><>>	incongruent	left	2	3	422
2	2	63	-->--	neutral	right	3	3	420
2	2	64	>>>>>	congruent	right	3	3	418
2	2	65	-->--	neutral	right	3	3	383
2	2	66	>><>>	incongruent	left	2	3	702
2	2	67	>>>>>	congruent	right	3	3	373
2	2	68	>>>>>	congruent	right	3	3	363
2	2	69	>>>>>	congruent	right	3	3	367
2	2	70	--<--	neutral	left	2	2	356
2	2	71	<<<<<	congruent	left	2	2	404
2	2	72	<<><<	incongruent	right	3	2	321
3	1	1	-->--	neutral	right	3	3	421
3	1	2	<<><<	incongruent	right	3	3	496
3	1	3	>><>>	incongruent	left	2	2	444
3	1	4	>><>>	incongruent	left	2	2	478
3	1	5	<<<<<	congruent	left	2	2	406
3	1	6	>><>>	incongruent	left	2	2	480
3	1	7	--<--	neutral	left	2	2	395
3	1	8	--<--	neutral	left	2	2	373
3	1	9	<<><<	incongruent	right	3	3	394
3	1	10	>>>>>	congruent	right	3	3	314
3	1	11	--<--	neutral	left	2	2	350
3	1	12	<<><<	incongruent	right	3	3	383
3	1	13	<<><<	incongruent	right	3	3	421
3	1	14	-->--	neutral	right	3	3	356
3	1	15	>><>>	incongruent	left	2	3	373
3	1	16	>>>>>	congruent	right	3	3	380
3	1	17	<<><<	incongruent	right	3	3	495
3	1	18	>><>>	incongruent	left	2	2	490
3	1	19	-->--	neutral	right	3	3	374
3	1	20	>><>>	incongruent	left	2	2	444
3	1	21	>>>>>	congruent	right	3	3	351
3	1	22	-->--	neutral	right	3	3	400
3	1	23	>><>>	incongruent	left	2	2	426
3	1	24	--<--	neutral	left	2	2	395
3	1	25	<<<<<	congruent	left	2	2	356
3	1	26	--<--	neutral	left	2	2	405
3	1	27	<<<<<	congruent	left	2	2	306
3	1	28	<<<<<	congruent	left	2	2	317
3	1	29	-->--	neutral	right	3	3	327
3	1	30	-->--	neutral	right	3	3	293
3	1	31	<<<<<	congruent	left	2	2	332
3	1	32	<<><<	incongruent	right	3	3	535
3	1	33	--<--	neutral	left	2	2	412
3	1	34	--<--	neutral	left	2	2	393
3	1	35	--<--	neutral	left	2	2	356
3	1	36	>>>>>	congruent	right	3	3	358
3	1	37	<<<<<	congruent	left	2	2	375
3	1	38	<<<<<	congruent	left	2	2	349
3	1	39	>>>>>	congruent	right	3	3	304
3	1	40	<<><<	incongruent	right	3	3	390
3	1	41	>>>>>	congruent	right	3	3	336
3	1	42	<<<<<	congruent	left	2	2	320
3	1	43	--<--	neutral	left	2	2	364
3	1	44	>><>>	incongruent	left	2	3	321
3	1	45	--<--	neutral	left	2	2	318
3	1	46	<<><<	incongruent	right	3	3	406
3	1	47	>>>>>	congruent	right	3	3	324
3	1	48	<<><<	incongruent	right	3	2	273
3	1	49	>><>>	incongruent	left	2	2	448
3	1	50	<<<<<	congruent	left	2	2	357
3	1	51	<<><<	incongruent	right	3	3	390
3	1	52	>><>>	incongruent	left	2	2	429
3	1	53	-->--	neutral	right	3	3	367
3	1	54	-->--	neutral	right	3	3	371
3	1	55	<<><<	incongruent	right	3	3	408
3	1	56	>><>>	incongruent	left	2	2	464
3	1	57	-->--	neutral	right	3	3	343
3	1	58	-->--	neutral	right	3	3	373
3	1	59	-->--	neutral	right	3	3	380
3	1	60	<<<<<	congruent	left	2	2	323
3	1	61	-->--	neutral	right	3	3	383
3	1	62	<<><<	incongruent	right	3	3	483
3	1	63	>>>>>	congruent	right	3	3	398
3	1	64	>>>>>	congruent	right	3	3	391
3	1	65	--<--	neutral	left	2	2	368
3	1	66	<<<<<	congruent	left	2	2	326
3	1	67	<<<<<	congruent	left	2	2	323
3	1	68	>>>>>	congruent	right	3	3	366
3	1	69	--<--	neutral	left	2	2	417
3	1	70	>>>>>	congruent	right	3	3	367
3	1	71	>><>>	incongruent	left	2	2	481
3	1	72	>>>>>	congruent	right	3	3	365
3	2	1	<<><<	incongruent	right	3	3	467
3	2	2	<<><<	incongruent	right	3	3	474
3	2	3	-->--	neutral	right	3	3	418
3	2	4	>><>>	incongruent	left	2	2	447
3	2	5	--<--	neutral	left	2	2	339
3	2	6	-->--	neutral	right	3	3	386
3	2	7	<<<<<	congruent	left	2	2	347
3	2	8	>><>>	incongruent	left	2	2	443
3	2	9	>><>>	incongruent	left	2	2	491
3	2	10	-->--	neutral	right	3	3	375
3	2	11	>><>>	incongruent	left	2	2	398
3	2	12	<<<<<	congruent	left	2	2	341
3	2	13	--<--	neutral	left	2	2	342
3	2	14	>>>>>	congruent	right	3	3	373
3	2	15	--<--	neutral	left	2	2	286
3	2	16	<<<<<	congruent	left	2	2	323
3	2	17	<<<<<	congruent	left	2	2	288
3	2	18	>><>>	incongruent	left	2	2	497
3	2	19	--<--	neutral	left	2	2	313
3	2	20	>><>>	incongruent	left	2	2	425
3	2	21	>>>>>	congruent	right	3	3	391
3	2	22	>>>>>	congruent	right	3	3	337
3	2	23	--<--	neutral	left	2	2	336
3	2	24	--<--	neutral	left	2	2	305
3	2	25	<<><<	incongruent	right	3	3	406
3	2	26	>>>>>	congruent	right	3	3	386
3	2	27	-->--	neutral	right	3	3	410
3	2	28	>>>>>	congruent	right	3	3	389
3	2	29	<<<<<	congruent	left	2	2	305
3	2	30	<<<<<	congruent	left	2	2	297
3	2	31	-->--	neutral	right	3	3	476
3	2	32	-->--	neutral	right	3	3	389
3	2	33	--<--	neutral	left	2	2	335
3	2	34	<<><<	incongruent	right	3	3	451
3	2	35	--<--	neutral	left	2	2	369
3	2	36	<<><<	incongruent	right	3	2	294
3	2	37	>>>>>	congruent	right	3	3	396
3	2	38	--<--	neutral	left	2	2	373
3	2	39	>>>>>	congruent	right	3	3	410
3	2	40	<<<<<	congruent	left	2	2	328
3	2	41	>><>>	incongruent	left	2	2	497
3	2	42	<<><<	incongruent	right	3	3	461
3	2	43	>><>>	incongruent	left	2	2	449
3	2	44	<<<<<	congruent	left	2	2	326
3	2	45	-->--	neutral	right	3	3	371
3	2	46	<<<<<	congruent	left	2	2	312
3	2	47	>><>>	incongruent	left	2	2	541
3	2	48	<<><<	incongruent	right	3	2	340
3	2	49	<<><<	incongruent	right	3	3	495
3	2	50	-->--	neutral	right	3	3	351
3	2	51	--<--	neutral	left	2	2	384
3	2	52	>><>>	incongruent	left	2	2	483
3	2	53	<<><<	incongruent	right	3	2	321
3	2	54	-->--	neutral	right	3	3	412
3	2	55	-->--	neutral	right	3	3	375
3	2	56	--<--	neutral	left	2	2	350
3	2	57	<<<<<	congruent	left	2	2	352
3	2	58	<<><<	incongruent	right	3	3	416
3	2	59	>>>>>	congruent	right	3	3	397
3	2	60	--<--	neutral	left	2	2	328
3	2	61	>><>>	incongruent	left	2	2	466
3	2	62	<<<<<	congruent	left	2	2	316
3	2	63	>>>>>	congruent	right	3	3	342
3	2	64	>><>>	incongruent	left	2	2	451
3	2	65	-->--	neutral	right	3	3	372
3	2	66	>>>>>	congruent	right	3	3	381
3	2	67	<<><<	incongruent	right	3	2	340
3	2	68	-->--	neutral	right	3	3	418
3	2	69	>>>>>	congruent	right	3	3	415
3	2	70	>>>>>	congruent	right	3	3	366
3	2	71	<<><<	incongruent	right	3	3	542
3	2	72	<<<<<	congruent	left	2	2	388
4	1	1	<<<<<	congruent	left	2	2	536
4	1	2	--<--	neutral	left	2	2	460
4	1	3	--<--	neutral	left	2	2	387
4	1	4	>><>>	incongruent	left	2	2	849
4	1	5	-->--	neutral	right	3	3	545
4	1	6	<<<<<	congruent	left	2	2	453
4	1	7	<<><<	incongruent	right	3	3	739
4	1	8	<<><<	incongruent	right	3	3	604
4	1	9	<<><<	incongruent	right	3	3	727
4	1	10	<<<<<	congruent	left	2	2	512
4	1	11	--<--	neutral	left	2	2	557
4	1	12	<<><<	incongruent	right	3	3	858
4	1	13	<<<<<	congruent	left	2	2	510
4	1	14	>>>>>	congruent	right	3	3	523
4	1	15	>>>>>	congruent	right	3	3	507
4	1	16	<<><<	incongruent	right	3	3	944
4	1	17	<<><<	incongruent	right	3	3	780
4	1	18	<<><<	incongruent	right	3	3	699
4	1	19	<<><<	incongruent	right	3	3	635
4	1	20	<<<<<	congruent	left	2	2	716
4	1	21	>><>>	incongruent	left	2	2	827
4	1	22	>><>>	incongruent	left	2	2	646
4	1	23	-->--	neutral	right	3	3	448
4	1	24	-->--	neutral	right	3	3	606
4	1	25	>>>>>	congruent	right	3	3	542
4	1	26	<<<<<	congruent	left	2	2	513
4	1	27	>><>>	incongruent	left	2	2	714
4	1	28	--<--	neutral	left	2	2	481
4	1	29	<<<<<	congruent	left	2	2	428
4	1	30	>><>>	incongruent	left	2	2	630
4	1	31	-->--	neutral	right	3	3	481
4	1	32	>><>>	incongruent	left	2	2	736
4	1	33	-->--	neutral	right	3	3	460
4	1	34	--<--	neutral	left	2	2	434
4	1	35	>><>>	incongruent	left	2	2	558
4	1	36	>>>>>	congruent	right	3	3	501
4	1	37	>><>>	incongruent	left	2	2	496
4	1	38	>>>>>	congruent	right	3	3	414
4	1	39	-->--	neutral	right	3	3	458
4	1	40	<<><<	incongruent	right	3	3	744
4	1	41	-->--	neutral	right	3	3	671
4	1	42	>><>>	incongruent	left	2	2	509
4	1	43	>><>>	incongruent	left	2	2	553
4	1	44	--<--	neutral	left	2	2	434
4	1	45	--<--	neutral	left	2	2	403
4	1	46	>>>>>	congruent	right	3	3	460
4	1	47	<<><<	incongruent	right	3	3	589
4	1	48	-->--	neutral	right	3	3	445
4	1	49	-->--	neutral	right	3	3	400
4	1	50	>>>>>	congruent	right	3	3	441
4	1	51	-->--	neutral	right	3	3	428
4	1	52	--<--	neutral	left	2	2	444
4	1	53	--<--	neutral	left	2	2	415
4	1	54	<<<<<	congruent	left	2	2	505
4	1	55	>><>>	incongruent	left	2	2	644
4	1	56	--<--	neutral	left	2	2	462
4	1	57	<<<<<	congruent	left	2	2	560
4	1	58	-->--	neutral	right	3	3	458
4	1	59	--<--	neutral	left	2	2	431
4	1	60	>>>>>	congruent	right	3	3	462
4	1	61	<<<<<	congruent	left	2	2	575
4	1	62	<<<<<	congruent	left	2	2	460
4	1	63	-->--	neutral	right	3	3	495
4	1	64	--<--	neutral	left	2	2	476
4	1	65	>>>>>	congruent	right	3	3	467
4	1	66	<<<<<	congruent	left	2	2	473
4	1	67	>>>>>	congruent	right	3	3	371
4	1	68	<<><<	incongruent	right	3	3	765
4	1	69	>>>>>	congruent	right	3	3	682
4	1	70	>><>>	incongruent	left	2	3	851
4	1	71	<<><<	incongruent	right	3	3	889
4	1	72	>>>>>	congruent	right	3	3	561
4	2	1	-->--	neutral	right	3	3	510
4	2	2	--<--	neutral	left	2	2	431
4	2	3	>><>>	incongruent	left	2	2	759
4	2	4	--<--	neutral	left	2	2	563
4	2	5	-->--	neutral	right	3	3	1336
4	2	6	<<><<	incongruent	right	3	3	929
4	2	7	<<<<<	congruent	left	2	2	623
4	2	8	--<--	neutral	left	2	2	655
4	2	9	>>>>>	congruent	right	3	3	569
4	2	10	>><>>	incongruent	left	2	2	1435
4	2	11	--<--	neutral	left	2	2	530
4	2	12	>>>>>	congruent	right	3	3	467
4	2	13	<<<<<	congruent	left	2	2	506
4	2	14	--<--	neutral	left	2	2	516
4	2	15	>><>>	incongruent	left	2	2	499
4	2	16	--<--	neutral	left	2	2	417
4	2	17	-->--	neutral	right	3	3	492
4	2	18	>>>>>	congruent	right	3	3	470
4	2	19	>><>>	incongruent	left	2	2	820
4	2	20	<<><<	incongruent	right	3	3	683
4	2	21	<<><<	incongruent	right	3	3	742
4	2	22	<<><<	incongruent	right	3	3	561
4	2	23	-->--	neutral	right	3	3	459
4	2	24	-->--	neutral	right	3	3	462
4	2	25	>><>>	incongruent	left	2	2	607
4	2	26	>>>>>	congruent	right	3	3	481
4	2	27	<<<<<	congruent	left	2	2	505
4	2	28	--<--	neutral	left	2	2	610
4	2	29	>><>>	incongruent	left	2	2	655
4	2	30	<<><<	incongruent	right	3	3	1163
4	2	31	<<<<<	congruent	left	2	2	774
4	2	32	<<<<<	congruent	left	2	2	458
4	2	33	-->--	neutral	right	3	3	603
4	2	34	<<><<	incongruent	right	3	3	758
4	2	35	-->--	neutral	right	3	3	516
4	2	36	<<<<<	congruent	left	2	2	561
4	2	37	-->--	neutral	right	3	3	568
4	2	38	<<<<<	congruent	left	2	2	715
4	2	39	<<<<<	congruent	left	2	2	529
4	2	40	>><>>	incongruent	left	2	2	716
4	2	41	>><>>	incongruent	left	2	2	671
4	2	42	--<--	neutral	left	2	2	509
4	2	43	>><>>	incongruent	left	2	2	616
4	2	44	<<><<	incongruent	right	3	3	726
4	2	45	>>>>>	congruent	right	3	3	557
4	2	46	-->--	neutral	right	3	3	547
4	2	47	<<<<<	congruent	left	2	2	692
4	2	48	--<--	neutral	left	2	2	629
4	2	49	<<><<	incongruent	right	3	3	647
4	2	50	>>>>>	congruent	right	3	3	481
4	2	51	-->--	neutral	right	3	3	474
4	2	52	<<<<<	congruent	left	2	2	653
4	2	53	>><>>	incongruent	left	2	2	832
4	2	54	--<--	neutral	left	2	2	542
4	2	55	<<<<<	congruent	left	2	2	559
4	2	56	-->--	neutral	right	3	3	457
4	2	57	<<<<<	congruent	left	2	2	586
4	2	58	--<--	neutral	left	2	2	551
4	2	59	>>>>>	congruent	right	3	3	524
4	2	60	-->--	neutral	right	3	3	493
4	2	61	>><>>	incongruent	left	2	2	1161
4	2	62	<<><<	incongruent	right	3	3	522
4	2	63	<<><<	incongruent	right	3	3	569
4	2	64	>>>>>	congruent	right	3	3	497
4	2	65	--<--	neutral	left	2	2	556
4	2	66	>><>>	incongruent	left	2	2	748
4	2	67	>>>>>	congruent	right	3	3	569
4	2	68	>>>>>	congruent	right	3	3	529
4	2	69	>>>>>	congruent	right	3	3	483
4	2	70	<<><<	incongruent	right	3	3	647
4	2	71	>>>>>	congruent	right	3	3	512
4	2	72	<<><<	incongruent	right	3	3	681
5	1	1	--<--	neutral	left	2	2	426
5	1	2	-->--	neutral	right	3	3	363
5	1	3	>>>>>	congruent	right	3	3	492
5	1	4	>>>>>	congruent	right	3	3	503
5	1	5	<<><<	incongruent	right	3	3	624
5	1	6	>>>>>	congruent	right	3	3	515
5	1	7	>>>>>	congruent	right	3	3	435
5	1	8	>><>>	incongruent	left	2	2	623
5	1	9	<<<<<	congruent	left	2	2	592
5	1	10	<<><<	incongruent	right	3	3	494
5	1	11	>><>>	incongruent	left	2	2	553
5	1	12	<<<<<	congruent	left	2	2	432
5	1	13	<<<<<	congruent	left	2	2	416
5	1	14	>>>>>	congruent	right	3	3	429
5	1	15	-->--	neutral	right	3	3	429
5	1	16	>><>>	incongruent	left	2	2	476
5	1	17	--<--	neutral	left	2	2	514
5	1	18	<<><<	incongruent	right	3	3	481
5	1	19	>><>>	incongruent	left	2	2	427
5	1	20	-->--	neutral	right	3	3	427
5	1	21	-->--	neutral	right	3	3	348
5	1	22	>>>>>	congruent	right	3	3	381
5	1	23	--<--	neutral	left	2	2	418
5	1	24	<<<<<	congruent	left	2	2	416
5	1	25	-->--	neutral	right	3	3	382
5	1	26	-->--	neutral	right	3	3	435
5	1	27	>>>>>	congruent	right	3	3	466
5	1	28	--<--	neutral	left	2	2	411
5	1	29	>>>>>	congruent	right	3	3	405
5	1	30	<<<<<	congruent	left	2	2	479
5	1	31	--<--	neutral	left	2	2	488
5	1	32	--<--	neutral	left	2	2	356
5	1	33	-->--	neutral	right	3	2	358
5	1	34	>>>>>	congruent	right	3	3	485
5	1	35	>><>>	incongruent	left	2	2	572
5	1	36	>><>>	incongruent	left	2	2	563
5	1	37	<<><<	incongruent	right	3	3	476
5	1	38	-->--	neutral	right	3	3	451
5	1	39	<<<<<	congruent	left	2	2	407
5	1	40	>><>>	incongruent	left	2	2	558
5	1	41	>>>>>	congruent	right	3	3	532
5	1	42	>><>>	incongruent	left	2	2	501
5	1	43	--<--	neutral	left	2	2	496
5	1	44	--<--	neutral	left	2	2	430
5	1	45	<<<<<	congruent	left	2	2	461
5	1	46	>>>>>	congruent	right	3	3	480
5	1	47	<<<<<	congruent	left	2	2	490
5	1	48	<<><<	incongruent	right	3	3	592
5	1	49	>><>>	incongruent	left	2	2	604
5	1	50	<<><<	incongruent	right	3	3	556
5	1	51	<<<<<	congruent	left	2	2	420
5	1	52	>>>>>	congruent	right	3	3	385
5	1	53	>><>>	incongruent	left	2	2	441
5	1	54	--<--	neutral	left	2	2	443
5	1	55	--<--	neutral	left	2	2	398
5	1	56	--<--	neutral	left	2	2	501
5	1	57	-->--	neutral	right	3	3	449
5	1	58	>><>>	incongruent	left	2	2	623
5	1	59	<<><<	incongruent	right	3	2	484
5	1	60	<<<<<	congruent	left	2	2	586
5	1	61	--<--	neutral	left	2	2	550
5	1	62	<<<<<	congruent	left	2	2	478
5	1	63	<<><<	incongruent	right	3	3	516
5	1	64	<<<<<	congruent	left	2	2	466
5	1	65	<<><<	incongruent	right	3	3	551
5	1	66	-->--	neutral	right	3	3	415
5	1	67	<<><<	incongruent	right	3	3	600
5	1	68	<<><<	incongruent	right	3	3	551
5	1	69	>><>>	incongruent	left	2	2	587
5	1	70	<<><<	incongruent	right	3	3	459
5	1	71	-->--	neutral	right	3	3	401
5	1	72	-->--	neutral	right	3	3	380
5	2	1	>>>>>	congruent	right	3	3	532
5	2	2	>>>>>	congruent	right	3	3	469
5	2	3	>><>>	incongruent	left	2	2	538
5	2	4	<<<<<	congruent	left	2	2	447
5	2	5	<<<<<	congruent	left	2	2	434
5	2	6	-->--	neutral	right	3	3	418
5	2	7	>>>>>	congruent	right	3	3	415
5	2	8	<<><<	incongruent	right	3	3	460
5	2	9	-->--	neutral	right	3	3	370
5	2	10	>>>>>	congruent	right	3	3	359
5	2	11	<<><<	incongruent	right	3	3	642
5	2	12	>><>>	incongruent	left	2	2	647
5	2	13	<<><<	incongruent	right	3	3	433
5	2	14	<<<<<	congruent	left	2	2	433
5	2	15	--<--	neutral	left	2	2	433
5	2	16	<<<<<	congruent	left	2	2	386
5	2	17	-->--	neutral	right	3	3	394
5	2	18	--<--	neutral	left	2	2	465
5	2	19	--<--	neutral	left	2	2	500
5	2	20	--<--	neutral	left	2	2	465
5	2	21	<<<<<	congruent	left	2	2	438
5	2	22	>>>>>	congruent	right	3	3	375
5	2	23	>>>>>	congruent	right	3	3	351
5	2	24	>>>>>	congruent	right	3	3	383
5	2	25	--<--	neutral	left	2	2	405
5	2	26	--<--	neutral	left	2	2	400
5	2	27	<<><<	incongruent	right	3	3	927
5	2	28	-->--	neutral	right	3	3	434
5	2	29	>><>>	incongruent	left	2	2	668
5	2	30	<<><<	incongruent	right	3	3	568
5	2	31	<<><<	incongruent	right	3	3	669
5	2	32	<<><<	incongruent	right	3	3	538
5	2	33	<<><<	incongruent	right	3	3	509
5	2	34	<<<<<	congruent	left	2	2	491
5	2	35	-->--	neutral	right	3	2	469
5	2	36	>><>>	incongruent	left	2	2	600
5	2	37	-->--	neutral	right	3	3	427
5	2	38	>><>>	incongruent	left	2	2	661
5	2	39	<<<<<	congruent	left	2	2	638
5	2	40	<<><<	incongruent	right	3	3	578
5	2	41	-->--	neutral	right	3	3	462
5	2	42	>>>>>	congruent	right	3	3	451
5	2	43	<<><<	incongruent	right	3	3	594
5	2	44	>><>>	incongruent	left	2	2	606
5	2	45	--<--	neutral	left	2	2	558
5	2	46	-->--	neutral	right	3	3	500
5	2	47	--<--	neutral	left	2	2	444
5	2	48	-->--	neutral	right	3	3	482
5	2	49	>><>>	incongruent	left	2	2	631
5	2	50	-->--	neutral	right	3	3	462
5	2	51	-->--	neutral	right	3	3	435
5	2	52	<<<<<	congruent	left	2	2	497
5	2	53	>><>>	incongruent	left	2	2	618
5	2	54	>><>>	incongruent	left	2	2	697
5	2	55	--<--	neutral	left	2	2	352
5	2	56	>><>>	incongruent	left	2	2	682
5	2	57	--<--	neutral	left	2	2	507
5	2	58	-->--	neutral	right	3	3	411
5	2	59	>>>>>	congruent	right	3	3	422
5	2	60	<<><<	incongruent	right	3	3	700
5	2	61	<<<<<	congruent	left	2	2	434
5	2	62	>>>>>	congruent	right	3	3	496
5	2	63	>>>>>	congruent	right	3	3	569
5	2	64	--<--	neutral	left	2	2	889
5	2	65	<<><<	incongruent	right	3	3	592
5	2	66	<<<<<	congruent	left	2	2	369
5	2	67	--<--	neutral	left	2	2	670
5	2	68	>>>>>	congruent	right	3	3	445
5	2	69	>><>>	incongruent	left	2	2	635
5	2	70	<<<<<	congruent	left	2	2	638
5	2	71	<<<<<	congruent	left	2	2	422
5	2	72	>><>>	incongruent	left	2	2	778
6	1	1	-->--	neutral	right	3	3	432
6	1	2	--<--	neutral	left	2	2	416
6	1	3	>>>>>	congruent	right	3	3	477
6	1	4	--<--	neutral	left	2	2	296
6	1	5	>>>>>	congruent	right	3	3	381
6	1	6	>><>>	incongruent	left	2	2	576
6	1	7	>><>>	incongruent	left	2	2	600
6	1	8	<<<<<	congruent	left	2	2	427
6	1	9	>>>>>	congruent	right	3	3	411
6	1	10	-->--	neutral	right	3	3	469
6	1	11	>><>>	incongruent	left	2	2	632
6	1	12	<<><<	incongruent	right	3	3	463
6	1	13	>>>>>	congruent	right	3	3	357
6	1	14	>>>>>	congruent	right	3	3	391
6	1	15	-->--	neutral	right	3	3	368
6	1	16	--<--	neutral	left	2	2	402
6	1	17	>><>>	incongruent	left	2	2	429
6	1	18	<<<<<	congruent	left	2	2	366
6	1	19	<<<<<	congruent	left	2	2	386
6	1	20	-->--	neutral	right	3	3	395
6	1	21	--<--	neutral	left	2	2	356
6	1	22	-->--	neutral	right	3	3	451
6	1	23	>>>>>	congruent	right	3	3	422
6	1	24	<<<<<	congruent	left	2	2	373
6	1	25	-->--	neutral	right	3	3	411
6	1	26	>><>>	incongruent	left	2	2	593
6	1	27	<<<<<	congruent	left	2	2	418
6	1	28	<<><<	incongruent	right	3	3	555
6	1	29	--<--	neutral	left	2	2	357
6	1	30	<<<<<	congruent	left	2	2	405
6	1	31	<<><<	incongruent	right	3	3	588
6	1	32	--<--	neutral	left	2	2	381
6	1	33	>>>>>	congruent	right	3	3	387
6	1	34	-->--	neutral	right	3	3	385
6	1	35	>><>>	incongruent	left	2	2	527
6	1	36	<<><<	incongruent	right	3	3	527
6	1	37	>>>>>	congruent	right	3	3	450
6	1	38	<<<<<	congruent	left	2	2	435
6	1	39	<<<<<	congruent	left	2	2	419
6	1	40	<<><<	incongruent	right	3	3	386
6	1	41	>><>>	incongruent	left	2	3	395
6	1	42	<<><<	incongruent	right	3	3	559
6	1	43	>>>>>	congruent	right	3	3	457
6	1	44	-->--	neutral	right	3	3	399
6	1	45	-->--	neutral	right	3	3	394
6	1	46	<<<<<	congruent	left	2	2	434
6	1	47	>><>>	incongruent	left	2	2	574
6	1	48	-->--	neutral	right	3	3	506
6	1	49	<<><<	incongruent	right	3	3	597
6	1	50	--<--	neutral	left	2	2	484
6	1	51	>><>>	incongruent	left	2	2	774
6	1	52	--<--	neutral	left	2	2	458
6	1	53	-->--	neutral	right	3	3	604
6	1	54	>>>>>	congruent	right	3	3	742
6	1	55	<<><<	incongruent	right	3	3	592
6	1	56	--<--	neutral	left	2	2	572
6	1	57	<<><<	incongruent	right	3	3	660
6	1	58	>><>>	incongruent	left	2	2	948
6	1	59	-->--	neutral	right	3	3	428
6	1	60	<<<<<	congruent	left	2	2	460
6	1	61	>>>>>	congruent	right	3	3	495
6	1	62	<<><<	incongruent	right	3	3	647
6	1	63	>><>>	incongruent	left	2	2	558
6	1	64	<<<<<	congruent	left	2	2	454
6	1	65	<<<<<	congruent	left	2	2	427
6	1	66	>><>>	incongruent	left	2	2	661
6	1	67	--<--	neutral	left	2	2	418
6	1	68	<<><<	incongruent	right	3	3	494
6	1	69	<<><<	incongruent	right	3	3	630
6	1	70	--<--	neutral	left	2	2	430
6	1	71	--<--	neutral	left	2	2	399
6	1	72	>>>>>	congruent	right	3	3	409
6	2	1	<<<<<	congruent	left	2	2	409
6	2	2	>>>>>	congruent	right	3	3	389
6	2	3	>><>>	incongruent	left	2	2	663
6	2	4	--<--	neutral	left	2	2	437
6	2	5	>>>>>	congruent	right	3	3	405
6	2	6	<<<<<	congruent	left	2	2	479
6	2	7	>><>>	incongruent	left	2	2	548
6	2	8	>><>>	incongruent	left	2	2	552
6	2	9	-->--	neutral	right	3	3	463
6	2	10	<<<<<	congruent	left	2	2	592
6	2	11	>><>>	incongruent	left	2	2	558
6	2	12	<<><<	incongruent	right	3	3	547
6	2	13	-->--	neutral	right	3	3	551
6	2	14	>><>>	incongruent	left	2	2	619
6	2	15	-->--	neutral	right	3	3	416
6	2	16	<<<<<	congruent	left	2	2	382
6	2	17	<<><<	incongruent	right	3	3	482
6	2	18	<<<<<	congruent	left	2	2	429
6	2	19	<<><<	incongruent	right	3	3	460
6	2	20	>>>>>	congruent	right	3	3	386
6	2	21	--<--	neutral	left	2	2	379
6	2	22	>><>>	incongruent	left	2	3	385
6	2	23	<<<<<	congruent	left	2	2	531
6	2	24	>>>>>	congruent	right	3	3	359
6	2	25	--<--	neutral	left	2	2	380
6	2	26	-->--	neutral	right	3	3	370
6	2	27	-->--	neutral	right	3	3	468
6	2	28	<<><<	incongruent	right	3	3	506
6	2	29	--<--	neutral	left	2	2	441
6	2	30	>><>>	incongruent	left	2	2	615
6	2	31	<<><<	incongruent	right	3	3	710
6	2	32	--<--	neutral	left	2	2	398
6	2	33	>>>>>	congruent	right	3	3	423
6	2	34	-->--	neutral	right	3	3	458
6	2	35	<<<<<	congruent	left	2	2	409
6	2	36	<<<<<	congruent	left	2	2	419
6	2	37	-->--	neutral	right	3	3	386
6	2	38	>>>>>	congruent	right	3	3	472
6	2	39	<<><<	incongruent	right	3	3	494
6	2	40	--<--	neutral	left	2	2	427
6	2	41	>><>>	incongruent	left	2	2	521
6	2	42	<<><<	incongruent	right	3	3	505
6	2	43	>>>>>	congruent	right	3	3	503
6	2	44	>>>>>	congruent	right	3	3	421
6	2	45	-->--	neutral	right	3	3	496
6	2	46	<<<<<	congruent	left	2	2	805
6	2	47	>><>>	incongruent	left	2	2	588
6	2	48	--<--	neutral	left	2	2	425
6	2	49	--<--	neutral	left	2	2	456
6	2	50	>>>>>	congruent	right	3	3	398
6	2	51	>>>>>	congruent	right	3	3	485
6	2	52	<<><<	incongruent	right	3	3	556
6	2	53	>><>>	incongruent	left	2	2	670
6	2	54	-->--	neutral	right	3	3	415
6	2	55	-->--	neutral	right	3	3	427
6	2	56	<<<<<	congruent	left	2	2	411
6	2	57	-->--	neutral	right	3	3	391
6	2	58	--<--	neutral	left	2	2	353
6	2	59	--<--	neutral	left	2	2	370
6	2	60	-->--	neutral	right	3	3	374
6	2	61	<<><<	incongruent	right	3	3	505
6	2	62	<<<<<	congruent	left	2	2	360
6	2	63	--<--	neutral	left	2	2	411
6	2	64	>>>>>	congruent	right	3	3	406
6	2	65	>><>>	incongruent	left	2	2	573
6	2	66	<<<<<	congruent	left	2	2	411
6	2	67	<<><<	incongruent	right	3	3	531
6	2	68	>>>>>	congruent	right	3	3	578
6	2	69	<<><<	incongruent	right	3	3	557
6	2	70	--<--	neutral	left	2	2	436
6	2	71	<<><<	incongruent	right	3	3	576
6	2	72	>><>>	incongruent	left	2	2	460
7	1	1	<<<<<	congruent	left	2	2	457
7	1	2	<<<<<	congruent	left	2	2	415
7	1	3	<<<<<	congruent	left	2	2	365
7	1	4	<<<<<	congruent	left	2	2	432
7	1	5	>>>>>	congruent	right	3	3	416
7	1	6	-->--	neutral	right	3	3	398
7	1	7	<<<<<	congruent	left	2	2	375
7	1	8	<<><<	incongruent	right	3	2	413
7	1	9	--<--	neutral	left	2	2	410
7	1	10	<<<<<	congruent	left	2	2	390
7	1	11	>>>>>	congruent	right	3	3	398
7	1	12	>>>>>	congruent	right	3	3	375
7	1	13	-->--	neutral	right	3	3	365
7	1	14	<<><<	incongruent	right	3	2	370
7	1	15	<<><<	incongruent	right	3	3	538
7	1	16	-->--	neutral	right	3	3	423
7	1	17	<<<<<	congruent	left	2	2	499
7	1	18	<<<<<	congruent	left	2	2	400
7	1	19	-->--	neutral	right	3	3	411
7	1	20	--<--	neutral	left	2	2	438
7	1	21	<<><<	incongruent	right	3	3	502
7	1	22	>>>>>	congruent	right	3	3	527
7	1	23	>><>>	incongruent	left	2	2	496
7	1	24	>>>>>	congruent	right	3	3	507
7	1	25	<<><<	incongruent	right	3	3	615
7	1	26	-->--	neutral	right	3	3	490
7	1	27	>>>>>	congruent	right	3	3	421
7	1	28	<<><<	incongruent	right	3	2	434
7	1	29	>><>>	incongruent	left	2	2	558
7	1	30	-->--	neutral	right	3	3	500
7	1	31	>>>>>	congruent	right	3	3	450
7	1	32	<<><<	incongruent	right	3	3	546
7	1	33	<<><<	incongruent	right	3	3	519
7	1	34	-->--	neutral	right	3	3	426
7	1	35	>><>>	incongruent	left	2	2	582
7	1	36	<<><<	incongruent	right	3	3	731
7	1	37	-->--	neutral	right	3	3	500
7	1	38	--<--	neutral	left	2	2	636
7	1	39	>><>>	incongruent	left	2	2	578
7	1	40	--<--	neutral	left	2	2	461
7	1	41	<<<<<	congruent	left	2	2	419
7	1	42	--<--	neutral	left	2	2	448
7	1	43	--<--	neutral	left	2	2	403
7	1	44	>><>>	incongruent	left	2	2	554
7	1	45	-->--	neutral	right	3	3	466
7	1	46	--<--	neutral	left	2	2	394
7	1	47	-->--	neutral	right	3	3	418
7	1	48	--<--	neutral	left	2	2	368
7	1	49	<<<<<	congruent	left	2	2	482
7	1	50	<<<<<	congruent	left	2	2	397
7	1	51	>><>>	incongruent	left	2	2	609
7	1	52	<<><<	incongruent	right	3	2	436
7	1	53	>>>>>	congruent	right	3	3	701
7	1	54	<<><<	incongruent	right	3	3	840
7	1	55	<<><<	incongruent	right	3	3	520
7	1	56	>><>>	incongruent	left	2	2	505
7	1	57	>>>>>	congruent	right	3	3	469
7	1	58	--<--	neutral	left	2	2	477
7	1	59	--<--	neutral	left	2	2	436
7	1	60	>><>>	incongruent	left	2	2	530
7	1	61	-->--	neutral	right	3	3	499
7	1	62	>><>>	incongruent	left	2	2	494
7	1	63	<<<<<	congruent	left	2	2	395
7	1	64	>><>>	incongruent	left	2	2	560
7	1	65	--<--	neutral	left	2	2	427
7	1	66	>><>>	incongruent	left	2	2	583
7	1	67	-->--	neutral	right	3	3	483
7	1	68	>><>>	incongruent	left	2	2	524
7	1	69	>>>>>	congruent	right	3	3	575
7	1	70	--<--	neutral	left	2	2	392
7	1	71	>>>>>	congruent	right	3	3	479
7	1	72	>>>>>	congruent	right	3	3	504
7	2	1	>>>>>	congruent	right	3	3	488
7	2	2	>><>>	incongruent	left	2	2	434
7	2	3	>><>>	incongruent	left	2	2	543
7	2	4	<<<<<	congruent	left	2	2	421
7	2	5	-->--	neutral	right	3	3	434
7	2	6	<<<<<	congruent	left	2	2	418
7	2	7	-->--	neutral	right	3	3	463
7	2	8	>><>>	incongruent	left	2	2	467
7	2	9	>><>>	incongruent	left	2	2	536
7	2	10	<<><<	incongruent	right	3	3	664
7	2	11	>>>>>	congruent	right	3	3	452
7	2	12	<<><<	incongruent	right	3	3	613
7	2	13	--<--	neutral	left	2	2	442
7	2	14	>>>>>	congruent	right	3	3	444
7	2	15	-->--	neutral	right	3	3	399
7	2	16	<<<<<	congruent	left	2	2	426
7	2	17	>><>>	incongruent	left	2	2	473
7	2	18	>>>>>	congruent	right	3	3	463
7	2	19	>><>>	incongruent	left	2	2	467
7	2	20	--<--	neutral	left	2	2	411
7	2	21	--<--	neutral	left	2	2	407
7	2	22	<<<<<	congruent	left	2	2	371
7	2	23	<<><<	incongruent	right	3	3	515
7	2	24	-->--	neutral	right	3	3	420
7	2	25	<<><<	incongruent	right	3	3	542
7	2	26	<<<<<	congruent	left	2	2	466
7	2	27	<<<<<	congruent	left	2	2	395
7	2	28	-->--	neutral	right	3	3	544
7	2	29	-->--	neutral	right	3	3	484
7	2	30	>>>>>	congruent	right	3	3	462
7	2	31	--<--	neutral	left	2	2	434
7	2	32	-->--	neutral	right	3	3	450
7	2	33	-->--	neutral	right	3	3	437
7	2	34	<<<<<	congruent	left	2	2	420
7	2	35	>>>>>	congruent	right	3	3	419
7	2	36	<<><<	incongruent	right	3	3	541
7	2	37	>><>>	incongruent	left	2	2	590
7	2	38	<<<<<	congruent	left	2	2	430
7	2	39	>>>>>	congruent	right	3	3	445
7	2	40	--<--	neutral	left	2	2	401
7	2	41	>><>>	incongruent	left	2	2	551
7	2	42	<<><<	incongruent	right	3	3	478
7	2	43	>>>>>	congruent	right	3	3	517
7	2	44	--<--	neutral	left	2	2	452
7	2	45	>>>>>	congruent	right	3	3	485
7	2	46	<<><<	incongruent	right	3	3	603
7	2	47	-->--	neutral	right	3	3	524
7	2	48	<<<<<	congruent	left	2	2	415
7	2	49	<<><<	incongruent	right	3	3	599
7	2	50	>>>>>	congruent	right	3	3	442
7	2	51	>><>>	incongruent	left	2	2	475
7	2	52	<<<<<	congruent	left	2	2	388
7	2	53	>>>>>	congruent	right	3	3	459
7	2	54	-->--	neutral	right	3	3	416
7	2	55	-->--	neutral	right	3	3	461
7	2	56	--<--	neutral	left	2	2	418
7	2	57	<<><<	incongruent	right	3	3	697
7	2	58	>><>>	incongruent	left	2	2	524
7	2	59	--<--	neutral	left	2	2	477
7	2	60	--<--	neutral	left	2	2	437
7	2	61	--<--	neutral	left	2	2	436
7	2	62	<<<<<	congruent	left	2	2	405
7	2	63	--<--	neutral	left	2	2	400
7	2	64	<<><<	incongruent	right	3	3	489
7	2	65	>><>>	incongruent	left	2	2	499
7	2	66	>><>>	incongruent	left	2	2	588
7	2	67	<<><<	incongruent	right	3	3	490
7	2	68	<<<<<	congruent	left	2	2	421
7	2	69	--<--	neutral	left	2	2	371
7	2	70	<<><<	incongruent	right	3	3	594
7	2	71	>>>>>	congruent	right	3	3	449
7	2	72	-->--	neutral	right	3	3	420
8	1	1	>>>>>	congruent	right	3	3	473
8	1	2	<<<<<	congruent	left	2	2	464
8	1	3	-->--	neutral	right	3	3	484
8	1	4	--<--	neutral	left	2	2	524
8	1	5	>><>>	incongruent	left	2	2	679
8	1	6	--<--	neutral	left	2	2	536
8	1	7	<<<<<	congruent	left	2	2	430
8	1	8	<<><<	incongruent	right	3	3	445
8	1	9	-->--	neutral	right	3	3	416
8	1	10	<<><<	incongruent	right	3	3	601
8	1	11	>>>>>	congruent	right	3	3	412
8	1	12	<<<<<	congruent	left	2	2	407
8	1	13	-->--	neutral	right	3	3	433
8	1	14	--<--	neutral	left	2	2	418
8	1	15	>>>>>	congruent	right	3	3	415
8	1	16	>>>>>	congruent	right	3	3	412
8	1	17	-->--	neutral	right	3	3	426
8	1	18	--<--	neutral	left	2	2	441
8	1	19	-->--	neutral	right	3	3	396
8	1	20	-->--	neutral	right	3	3	420
8	1	21	--<--	neutral	left	2	2	449
8	1	22	<<<<<	congruent	left	2	2	389
8	1	23	<<><<	incongruent	right	3	3	584
8	1	24	--<--	neutral	left	2	2	437
8	1	25	<<<<<	congruent	left	2	2	422
8	1	26	-->--	neutral	right	3	3	372
8	1	27	<<><<	incongruent	right	3	2	378
8	1	28	>>>>>	congruent	right	3	3	416
8	1	29	>><>>	incongruent	left	2	2	476
8	1	30	<<<<<	congruent	left	2	2	420
8	1	31	>><>>	incongruent	left	2	2	496
8	1	32	>>>>>	congruent	right	3	3	460
8	1	33	-->--	neutral	right	3	3	480
8	1	34	>>>>>	congruent	right	3	3	426
8	1	35	--<--	neutral	left	2	2	469
8	1	36	>><>>	incongruent	left	2	2	480
8	1	37	<<<<<	congruent	left	2	2	379
8	1	38	<<<<<	congruent	left	2	2	464
8	1	39	>><>>	incongruent	left	2	2	452
8	1	40	>><>>	incongruent	left	2	2	457
8	1	41	<<<<<	congruent	left	2	2	420
8	1	42	--<--	neutral	left	2	2	442
8	1	43	>>>>>	congruent	right	3	3	445
8	1	44	--<--	neutral	left	2	2	431
8	1	45	-->--	neutral	right	3	3	400
8	1	46	<<><<	incongruent	right	3	3	536
8	1	47	>>>>>	congruent	right	3	3	554
8	1	48	>>>>>	congruent	right	3	3	386
8	1	49	--<--	neutral	left	2	2	457
8	1	50	<<<<<	congruent	left	2	2	478
8	1	51	>><>>	incongruent	left	2	2	516
8	1	52	<<><<	incongruent	right	3	3	498
8	1	53	>><>>	incongruent	left	2	2	416
8	1	54	<<><<	incongruent	right	3	3	507
8	1	55	<<><<	incongruent	right	3	3	520
8	1	56	<<<<<	congruent	left	2	2	427
8	1	57	>><>>	incongruent	left	2	2	567
8	1	58	--<--	neutral	left	2	2	434
8	1	59	--<--	neutral	left	2	2	480
8	1	60	-->--	neutral	right	3	3	411
8	1	61	<<><<	incongruent	right	3	3	484
8	1	62	>><>>	incongruent	left	2	2	524
8	1	63	<<><<	incongruent	right	3	3	447
8	1	64	<<><<	incongruent	right	3	3	714
8	1	65	>>>>>	congruent	right	3	3	578
8	1	66	>><>>	incongruent	left	2	2	459
8	1	67	>>>>>	congruent	right	3	3	354
8	1	68	<<><<	incongruent	right	3	3	450
8	1	69	<<<<<	congruent	left	2	2	358
8	1	70	-->--	neutral	right	3	3	453
8	1	71	-->--	neutral	right	3	3	395
8	1	72	>><>>	incongruent	left	2	2	419
8	2	1	>><>>	incongruent	left	2	2	484
8	2	2	-->--	neutral	right	3	3	368
8	2	3	<<><<	incongruent	right	3	3	481
8	2	4	>>>>>	congruent	right	3	3	365
8	2	5	<<><<	incongruent	right	3	3	494
8	2	6	--<--	neutral	left	2	2	380
8	2	7	<<<<<	congruent	left	2	2	355
8	2	8	<<><<	incongruent	right	3	3	482
8	2	9	>><>>	incongruent	left	2	2	491
8	2	10	<<><<	incongruent	right	3	3	395
8	2	11	<<><<	incongruent	right	3	3	446
8	2	12	<<<<<	congruent	left	2	2	385
8	2	13	<<<<<	congruent	left	2	2	391
8	2	14	>><>>	incongruent	left	2	2	525
8	2	15	-->--	neutral	right	3	3	400
8	2	16	>>>>>	congruent	right	3	3	395
8	2	17	<<><<	incongruent	right	3	2	388
8	2	18	--<--	neutral	left	2	2	521
8	2	19	-->--	neutral	right	3	3	459
8	2	20	>>>>>	congruent	right	3	3	495
8	2	21	<<<<<	congruent	left	2	2	521
8	2	22	<<<<<	congruent	left	2	2	444
8	2	23	-->--	neutral	right	3	3	477
8	2	24	>>>>>	congruent	right	3	3	437
8	2	25	<<><<	incongruent	right	3	3	562
8	2	26	<<><<	incongruent	right	3	3	506
8	2	27	>><>>	incongruent	left	2	2	535
8	2	28	--<--	neutral	left	2	2	413
8	2	29	>>>>>	congruent	right	3	3	426
8	2	30	<<><<	incongruent	right	3	3	520
8	2	31	-->--	neutral	right	3	3	364
8	2	32	>><>>	incongruent	left	2	2	461
8	2	33	--<--	neutral	left	2	2	434
8	2	34	<<<<<	congruent	left	2	2	403
8	2	35	-->--	neutral	right	3	3	414
8	2	36	>><>>	incongruent	left	2	2	489
8	2	37	<<><<	incongruent	right	3	3	529
8	2	38	>>>>>	congruent	right	3	3	436
8	2	39	>><>>	incongruent	left	2	2	451
8	2	40	<<<<<	congruent	left	2	2	437
8	2	41	<<<<<	congruent	left	2	2	419
8	2	42	<<<<<	congruent	left	2	2	357
8	2	43	-->--	neutral	right	3	3	405
8	2	44	<<<<<	congruent	left	2	2	401
8	2	45	>>>>>	congruent	right	3	3	442
8	2	46	--<--	neutral	left	2	2	397
8	2	47	>><>>	incongruent	left	2	2	531
8	2	48	<<><<	incongruent	right	3	3	453
8	2	49	--<--	neutral	left	2	2	364
8	2	50	>>>>>	congruent	right	3	3	367
8	2	51	--<--	neutral	left	2	2	403
8	2	52	>>>>>	congruent	right	3	3	367
8	2	53	>><>>	incongruent	left	2	2	417
8	2	54	--<--	neutral	left	2	2	384
8	2	55	<<<<<	congruent	left	2	2	421
8	2	56	>><>>	incongruent	left	2	2	513
8	2	57	-->--	neutral	right	3	3	370
8	2	58	--<--	neutral	left	2	2	343
8	2	59	<<<<<	congruent	left	2	2	560
8	2	60	>>>>>	congruent	right	3	3	396
8	2	61	-->--	neutral	right	3	3	420
8	2	62	>>>>>	congruent	right	3	3	370
8	2	63	--<--	neutral	left	2	2	515
8	2	64	--<--	neutral	left	2	2	434
8	2	65	-->--	neutral	right	3	3	419
8	2	66	-->--	neutral	right	3	3	526
8	2	67	>><>>	incongruent	left	2	2	648
8	2	68	--<--	neutral	left	2	2	531
8	2	69	>>>>>	congruent	right	3	3	984
8	2	70	<<><<	incongruent	right	3	3	547
8	2	71	>><>>	incongruent	left	2	2	536
8	2	72	-->--	neutral	right	3	3	460
9	1	1	>>>>>	congruent	right	3	3	607
9	1	2	-->--	neutral	right	3	3	371
9	1	3	--<--	neutral	left	2	2	407
9	1	4	<<<<<	congruent	left	2	2	480
9	1	5	>><>>	incongruent	left	2	2	567
9	1	6	>>>>>	congruent	right	3	3	449
9	1	7	>><>>	incongruent	left	2	2	592
9	1	8	<<><<	incongruent	right	3	3	556
9	1	9	--<--	neutral	left	2	2	436
9	1	10	--<--	neutral	left	2	2	358
9	1	11	<<<<<	congruent	left	2	2	453
9	1	12	<<<<<	congruent	left	2	2	442
9	1	13	-->--	neutral	right	3	3	523
9	1	14	-->--	neutral	right	3	3	428
9	1	15	-->--	neutral	right	3	3	365
9	1	16	>><>>	incongruent	left	2	2	557
9	1	17	>>>>>	congruent	right	3	3	452
9	1	18	>><>>	incongruent	left	2	2	535
9	1	19	>><>>	incongruent	left	2	2	522
9	1	20	<<><<	incongruent	right	3	3	554
9	1	21	-->--	neutral	right	3	3	464
9	1	22	--<--	neutral	left	2	2	344
9	1	23	>><>>	incongruent	left	2	2	562
9	1	24	>><>>	incongruent	left	2	2	460
9	1	25	>>>>>	congruent	right	3	3	448
9	1	26	--<--	neutral	left	2	2	419
9	1	27	>>>>>	congruent	right	3	3	432
9	1	28	-->--	neutral	right	3	3	494
9	1	29	<<><<	incongruent	right	3	3	631
9	1	30	-->--	neutral	right	3	3	524
9	1	31	<<<<<	congruent	left	2	2	462
9	1	32	-->--	neutral	right	3	3	497
9	1	33	<<><<	incongruent	right	3	3	509
9	1	34	<<><<	incongruent	right	3	3	538
9	1	35	<<><<	incongruent	right	3	3	525
9	1	36	>><>>	incongruent	left	2	2	509
9	1	37	-->--	neutral	right	3	3	429
9	1	38	-->--	neutral	right	3	3	476
9	1	39	>>>>>	congruent	right	3	3	435
9	1	40	<<<<<	congruent	left	2	2	389
9	1	41	<<><<	incongruent	right	3	3	398
9	1	42	--<--	neutral	left	2	2	422
9	1	43	<<><<	incongruent	right	3	3	575
9	1	44	<<<<<	congruent	left	2	2	444
9	1	45	--<--	neutral	left	2	2	399
9	1	46	>><>>	incongruent	left	2	2	582
9	1	47	>>>>>	congruent	right	3	3	467
9	1	48	<<><<	incongruent	right	3	3	426
9	1	49	<<><<	incongruent	right	3	3	676
9	1	50	-->--	neutral	right	3	3	420
9	1	51	<<<<<	congruent	left	2	2	417
9	1	52	--<--	neutral	left	2	2	462
9	1	53	>>>>>	congruent	right	3	3	435
9	1	54	<<><<	incongruent	right	3	3	559
9	1	55	>><>>	incongruent	left	2	2	520
9	1	56	>>>>>	congruent	right	3	3	442
9	1	57	>>>>>	congruent	right	3	3	429
9	1	58	--<--	neutral	left	2	2	397
9	1	59	>>>>>	congruent	right	3	3	405
9	1	60	--<--	neutral	left	2	2	385
9	1	61	>><>>	incongruent	left	2	3	329
9	1	62	>><>>	incongruent	left	2	2	513
9	1	63	<<<<<	congruent	left	2	2	386
9	1	64	<<<<<	congruent	left	2	2	457
9	1	65	>>>>>	congruent	right	3	3	508
9	1	66	-->--	neutral	right	3	3	537
9	1	67	<<<<<	congruent	left	2	2	477
9	1	68	--<--	neutral	left	2	2	484
9	1	69	<<><<	incongruent	right	3	3	604
9	1	70	<<<<<	congruent	left	2	2	603
9	1	71	<<<<<	congruent	left	2	2	476
9	1	72	--<--	neutral	left	2	2	405
9	2	1	>><>>	incongruent	left	2	2	592
9	2	2	>>>>>	congruent	right	3	3	447
9	2	3	--<--	neutral	left	2	2	434
9	2	4	--<--	neutral	left	2	2	465
9	2	5	>><>>	incongruent	left	2	2	579
9	2	6	--<--	neutral	left	2	2	369
9	2	7	<<><<	incongruent	right	3	3	811
9	2	8	>><>>	incongruent	left	2	2	531
9	2	9	-->--	neutral	right	3	3	454
9	2	10	-->--	neutral	right	3	3	504
9	2	11	-->--	neutral	right	3	3	421
9	2	12	<<<<<	congruent	left	2	2	482
9	2	13	>>>>>	congruent	right	3	3	444
9	2	14	>><>>	incongruent	left	2	2	461
9	2	15	>><>>	incongruent	left	2	2	591
9	2	16	<<<<<	congruent	left	2	2	462
9	2	17	-->--	neutral	right	3	3	497
9	2	18	<<<<<	congruent	left	2	2	415
9	2	19	<<<<<	congruent	left	2	2	475
9	2	20	>>>>>	congruent	right	3	3	684
9	2	21	<<<<<	congruent	left	2	2	447
9	2	22	>>>>>	congruent	right	3	3	512
9	2	23	-->--	neutral	right	3	3	541
9	2	24	--<--	neutral	left	2	2	466
9	2	25	<<><<	incongruent	right	3	3	485
9	2	26	<<><<	incongruent	right	3	3	525
9	2	27	<<<<<	congruent	left	2	2	401
9	2	28	<<<<<	congruent	left	2	2	431
9	2	29	>>>>>	congruent	right	3	3	457
9	2	30	>>>>>	congruent	right	3	3	431
9	2	31	<<<<<	congruent	left	2	2	400
9	2	32	>><>>	incongruent	left	2	2	520
9	2	33	<<><<	incongruent	right	3	3	677
9	2	34	-->--	neutral	right	3	3	515
9	2	35	>>>>>	congruent	right	3	3	419
9	2	36	>><>>	incongruent	left	2	2	541
9	2	37	-->--	neutral	right	3	3	466
9	2	38	<<><<	incongruent	right	3	3	501
9	2	39	-->--	neutral	right	3	3	450
9	2	40	>>>>>	congruent	right	3	3	389
9	2	41	<<<<<	congruent	left	2	2	475
9	2	42	>><>>	incongruent	left	2	2	561
9	2	43	--<--	neutral	left	2	2	395
9	2	44	--<--	neutral	left	2	2	404
9	2	45	<<><<	incongruent	right	3	3	540
9	2	46	<<><<	incongruent	right	3	3	574
9	2	47	<<><<	incongruent	right	3	3	536
9	2	48	<<<<<	congruent	left	2	2	461
9	2	49	>><>>	incongruent	left	2	2	621
9	2	50	-->--	neutral	right	3	3	451
9	2	51	--<--	neutral	left	2	2	452
9	2	52	>>>>>	congruent	right	3	3	426
9	2	53	--<--	neutral	left	2	2	438
9	2	54	>>>>>	congruent	right	3	3	391
9	2	55	--<--	neutral	left	2	2	431
9	2	56	>>>>>	congruent	right	3	3	368
9	2	57	-->--	neutral	right	3	3	466
9	2	58	-->--	neutral	right	3	3	379
9	2	59	<<><<	incongruent	right	3	3	557
9	2	60	>>>>>	congruent	right	3	3	406
9	2	61	<<><<	incongruent	right	3	3	478
9	2	62	<<><<	incongruent	right	3	3	550
9	2	63	-->--	neutral	right	3	3	492
9	2	64	<<<<<	congruent	left	2	2	383
9	2	65	--<--	neutral	left	2	2	369
9	2	66	>><>>	incongruent	left	2	2	608
9	2	67	--<--	neutral	left	2	2	434
9	2	68	>><>>	incongruent	left	2	2	512
9	2	69	--<--	neutral	left	2	2	369
9	2	70	<<><<	incongruent	right	3	3	686
9	2	71	<<<<<	congruent	left	2	2	448
9	2	72	>><>>	incongruent	left	2	2	590
10	1	1	<<<<<	congruent	left	2	2	724
10	1	2	>>>>>	congruent	right	3	3	556
10	1	3	<<><<	incongruent	right	3	2	435
10	1	4	-->--	neutral	right	3	3	497
10	1	5	--<--	neutral	left	2	2	555
10	1	6	-->--	neutral	right	3	3	497
10	1	7	-->--	neutral	right	3	3	493
10	1	8	--<--	neutral	left	2	2	488
10	1	9	--<--	neutral	left	2	2	451
10	1	10	--<--	neutral	left	2	2	438
10	1	11	--<--	neutral	left	2	2	406
10	1	12	<<><<	incongruent	right	3	3	573
10	1	13	<<<<<	congruent	left	2	2	660
10	1	14	-->--	neutral	right	3	3	465
10	1	15	<<><<	incongruent	right	3	3	563
10	1	16	-->--	neutral	right	3	3	445
10	1	17	>><>>	incongruent	left	2	2	557
10	1	18	<<<<<	congruent	left	2	2	561
10	1	19	>><>>	incongruent	left	2	2	491
10	1	20	<<<<<	congruent	left	2	2	389
10	1	21	>>>>>	congruent	right	3	3	368
10	1	22	>><>>	incongruent	left	2	2	418
10	1	23	>>>>>	congruent	right	3	3	400
10	1	24	-->--	neutral	right	3	3	395
10	1	25	>>>>>	congruent	right	3	3	403
10	1	26	<<<<<	congruent	left	2	2	414
10	1	27	<<<<<	congruent	left	2	2	381
10	1	28	--<--	neutral	left	2	2	402
10	1	29	>>>>>	congruent	right	3	3	351
10	1	30	--<--	neutral	left	2	2	352
10	1	31	<<<<<	congruent	left	2	2	369
10	1	32	--<--	neutral	left	2	2	389
10	1	33	-->--	neutral	right	3	3	398
10	1	34	>>>>>	congruent	right	3	3	406
10	1	35	-->--	neutral	right	3	3	370
10	1	36	>>>>>	congruent	right	3	3	373
10	1	37	>><>>	incongruent	left	2	2	427
10	1	38	<<><<	incongruent	right	3	3	474
10	1	39	-->--	neutral	right	3	3	402
10	1	40	>><>>	incongruent	left	2	2	413
10	1	41	<<<<<	congruent	left	2	2	379
10	1	42	--<--	neutral	left	2	2	369
10	1	43	--<--	neutral	left	2	2	358
10	1	44	<<><<	incongruent	right	3	3	531
10	1	45	>>>>>	congruent	right	3	3	422
10	1	46	<<><<	incongruent	right	3	3	528
10	1	47	<<><<	incongruent	right	3	3	498
10	1	48	--<--	neutral	left	2	2	416
10	1	49	<<><<	incongruent	right	3	3	569
10	1	50	>>>>>	congruent	right	3	3	420
10	1	51	>><>>	incongruent	left	2	2	433
10	1	52	>><>>	incongruent	left	2	2	464
10	1	53	-->--	neutral	right	3	3	422
10	1	54	<<><<	incongruent	right	3	3	512
10	1	55	-->--	neutral	right	3	3	448
10	1	56	--<--	neutral	left	2	2	450
10	1	57	>><>>	incongruent	left	2	2	452
10	1	58	>>>>>	congruent	right	3	3	503
10	1	59	<<><<	incongruent	right	3	3	640
10	1	60	<<<<<	congruent	left	2	2	598
10	1	61	>><>>	incongruent	left	2	2	516
10	1	62	<<<<<	congruent	left	2	2	467
10	1	63	>><>>	incongruent	left	2	2	489
10	1	64	<<<<<	congruent	left	2	2	498
10	1	65	<<><<	incongruent	right	3	2	400
10	1	66	>>>>>	congruent	right	3	3	442
10	1	67	<<><<	incongruent	right	3	3	616
10	1	68	-->--	neutral	right	3	3	773
10	1	69	>>>>>	congruent	right	3	3	426
10	1	70	>><>>	incongruent	left	2	2	536
10	1	71	>><>>	incongruent	left	2	2	472
10	1	72	<<<<<	congruent	left	2	2	403
10	2	1	<<<<<	congruent	left	2	2	404
10	2	2	<<><<	incongruent	right	3	3	494
10	2	3	--<--	neutral	left	2	2	410
10	2	4	>>>>>	congruent	right	3	3	405
10	2	5	--<--	neutral	left	2	2	385
10	2	6	<<<<<	congruent	left	2	2	360
10	2	7	--<--	neutral	left	2	2	363
10	2	8	-->--	neutral	right	3	3	446
10	2	9	<<><<	incongruent	right	3	2	354
10	2	10	>><>>	incongruent	left	2	2	465
10	2	11	--<--	neutral	left	2	2	406
10	2	12	>>>>>	congruent	right	3	3	386
10	2	13	-->--	neutral	right	3	3	395
10	2	14	<<><<	incongruent	right	3	3	481
10	2	15	-->--	neutral	right	3	3	381
10	2	16	<<><<	incongruent	right	3	3	496
10	2	17	-->--	neutral	right	3	3	352
10	2	18	-->--	neutral	right	3	3	353
10	2	19	<<<<<	congruent	left	2	2	433
10	2	20	>>>>>	congruent	right	3	3	386
10	2	21	<<><<	incongruent	right	3	3	486
10	2	22	--<--	neutral	left	2	2	388
10	2	23	<<<<<	congruent	left	2	2	412
10	2	24	<<<<<	congruent	left	2	2	407
10	2	25	>><>>	incongruent	left	2	2	573
10	2	26	>>>>>	congruent	right	3	3	380
10	2	27	<<<<<	congruent	left	2	2	386
10	2	28	-->--	neutral	right	3	3	394
10	2	29	<<><<	incongruent	right	3	3	529
10	2	30	>><>>	incongruent	left	2	2	450
10	2	31	>>>>>	congruent	right	3	3	452
10	2	32	<<<<<	congruent	left	2	2	426
10	2	33	>><>>	incongruent	left	2	2	551
10	2	34	>><>>	incongruent	left	2	2	430
10	2	35	--<--	neutral	left	2	2	493
10	2	36	--<--	neutral	left	2	2	410
10	2	37	-->--	neutral	right	3	3	468
10	2	38	>><>>	incongruent	left	2	2	458
10	2	39	<<<<<	congruent	left	2	2	364
10	2	40	-->--	neutral	right	3	3	420
10	2	41	>><>>	incongruent	left	2	2	433
10	2	42	<<><<	incongruent	right	3	2	355
10	2	43	>>>>>	congruent	right	3	3	388
10	2	44	--<--	neutral	left	2	2	380
10	2	45	<<<<<	congruent	left	2	2	371
10	2	46	<<><<	incongruent	right	3	3	484
10	2	47	>><>>	incongruent	left	2	2	431
10	2	48	>>>>>	congruent	right	3	3	462
10	2	49	<<><<	incongruent	right	3	3	575
10	2	50	>>>>>	congruent	right	3	3	398
10	2	51	--<--	neutral	left	2	2	422
10	2	52	-->--	neutral	right	3	3	403
10	2	53	>>>>>	congruent	right	3	3	430
10	2	54	<<<<<	congruent	left	2	2	398
10	2	55	--<--	neutral	left	2	2	375
10	2	56	>>>>>	congruent	right	3	3	445
10	2	57	-->--	neutral	right	3	3	383
10	2	58	>><>>	incongruent	left	2	2	468
10	2	59	<<><<	incongruent	right	3	3	490
10	2	60	<<><<	incongruent	right	3	3	437
10	2	61	>><>>	incongruent	left	2	2	453
10	2	62	<<><<	incongruent	right	3	3	478
10	2	63	>>>>>	congruent	right	3	3	400
10	2	64	<<<<<	congruent	left	2	2	380
10	2	65	--<--	neutral	left	2	2	370
10	2	66	--<--	neutral	left	2	2	406
10	2	67	-->--	neutral	right	3	3	401
10	2	68	-->--	neutral	right	3	3	397
10	2	69	<<<<<	congruent	left	2	2	452
10	2	70	>><>>	incongruent	left	2	2	517
10	2	71	>>>>>	congruent	right	3	3	421
10	2	72	>><>>	incongruent	left	2	2	465
11	1	1	>><>>	incongruent	left	2	2	850
11	1	2	--<--	neutral	left	2	2	483
11	1	3	>>>>>	congruent	right	3	3	430
11	1	4	--<--	neutral	left	2	2	430
11	1	5	>>>>>	congruent	right	3	3	398
11	1	6	<<><<	incongruent	right	3	2	391
11	1	7	<<<<<	congruent	left	2	2	416
11	1	8	-->--	neutral	right	3	3	460
11	1	9	<<><<	incongruent	right	3	3	573
11	1	10	>>>>>	congruent	right	3	3	474
11	1	11	>><>>	incongruent	left	2	2	867
11	1	12	<<<<<	congruent	left	2	2	462
11	1	13	--<--	neutral	left	2	2	404
11	1	14	--<--	neutral	left	2	2	352
11	1	15	-->--	neutral	right	3	3	463
11	1	16	<<><<	incongruent	right	3	3	530
11	1	17	--<--	neutral	left	2	2	374
11	1	18	>>>>>	congruent	right	3	3	521
11	1	19	>><>>	incongruent	left	2	2	537
11	1	20	<<><<	incongruent	right	3	3	601
11	1	21	>><>>	incongruent	left	2	2	522
11	1	22	<<<<<	congruent	left	2	2	444
11	1	23	<<><<	incongruent	right	3	3	665
11	1	24	<<<<<	congruent	left	2	2	438
11	1	25	<<><<	incongruent	right	3	3	781
11	1	26	--<--	neutral	left	2	2	482
11	1	27	>>>>>	congruent	right	3	3	522
11	1	28	>><>>	incongruent	left	2	2	600
11	1	29	<<><<	incongruent	right	3	3	770
11	1	30	-->--	neutral	right	3	3	452
11	1	31	<<<<<	congruent	left	2	2	567
11	1	32	--<--	neutral	left	2	2	526
11	1	33	>><>>	incongruent	left	2	2	620
11	1	34	-->--	neutral	right	3	3	543
11	1	35	-->--	neutral	right	3	3	514
11	1	36	--<--	neutral	left	2	2	387
11	1	37	<<<<<	congruent	left	2	2	442
11	1	38	-->--	neutral	right	3	3	460
11	1	39	-->--	neutral	right	3	3	528
11	1	40	-->--	neutral	right	3	3	496
11	1	41	>><>>	incongruent	left	2	2	523
11	1	42	>><>>	incongruent	left	2	2	524
11	1	43	>>>>>	congruent	right	3	3	429
11	1	44	-->--	neutral	right	3	3	460
11	1	45	<<><<	incongruent	right	3	3	543
11	1	46	<<><<	incongruent	right	3	3	483
11	1	47	>>>>>	congruent	right	3	3	429
11	1	48	<<><<	incongruent	right	3	3	554
11	1	49	>>>>>	congruent	right	3	3	403
11	1	50	--<--	neutral	left	2	2	476
11	1	51	-->--	neutral	right	3	3	436
11	1	52	<<<<<	congruent	left	2	2	404
11	1	53	-->--	neutral	right	3	3	368
11	1	54	-->--	neutral	right	3	3	427
11	1	55	>>>>>	congruent	right	3	3	419
11	1	56	<<><<	incongruent	right	3	3	588
11	1	57	>><>>	incongruent	left	2	2	709
11	1	58	<<<<<	congruent	left	2	2	477
11	1	59	<<<<<	congruent	left	2	2	436
11	1	60	>>>>>	congruent	right	3	3	420
11	1	61	>><>>	incongruent	left	2	2	495
11	1	62	--<--	neutral	left	2	2	460
11	1	63	>><>>	incongruent	left	2	2	527
11	1	64	<<><<	incongruent	right	3	3	480
11	1	65	<<<<<	congruent	left	2	2	442
11	1	66	<<<<<	congruent	left	2	2	475
11	1	67	>>>>>	congruent	right	3	3	436
11	1	68	>>>>>	congruent	right	3	3	467
11	1	69	>><>>	incongruent	left	2	2	504
11	1	70	<<<<<	congruent	left	2	2	422
11	1	71	--<--	neutral	left	2	2	420
11	1	72	--<--	neutral	left	2	2	432
11	2	1	<<><<	incongruent	right	3	3	484
11	2	2	>>>>>	congruent	right	3	3	492
11	2	3	<<<<<	congruent	left	2	2	379
11	2	4	-->--	neutral	right	3	3	432
11	2	5	>><>>	incongruent	left	2	2	556
11	2	6	<<><<	incongruent	right	3	3	530
11	2	7	>>>>>	congruent	right	3	3	483
11	2	8	<<<<<	congruent	left	2	2	461
11	2	9	>><>>	incongruent	left	2	2	512
11	2	10	<<><<	incongruent	right	3	3	494
11	2	11	>>>>>	congruent	right	3	3	443
11	2	12	-->--	neutral	right	3	3	399
11	2	13	>>>>>	congruent	right	3	3	485
11	2	14	>>>>>	congruent	right	3	3	416
11	2	15	>><>>	incongruent	left	2	3	351
11	2	16	<<><<	incongruent	right	3	3	946
11	2	17	>>>>>	congruent	right	3	3	457
11	2	18	-->--	neutral	right	3	3	400
11	2	19	<<><<	incongruent	right	3	3	644
11	2	20	--<--	neutral	left	2	2	462
11	2	21	--<--	neutral	left	2	2	482
11	2	22	-->--	neutral	right	3	3	414
11	2	23	<<><<	incongruent	right	3	3	520
11	2	24	>>>>>	congruent	right	3	3	458
11	2	25	<<><<	incongruent	right	3	3	618
11	2	26	-->--	neutral	right	3	3	479
11	2	27	<<<<<	congruent	left	2	2	720
11	2	28	--<--	neutral	left	2	2	504
11	2	29	<<<<<	congruent	left	2	2	515
11	2	30	>><>>	incongruent	left	2	2	575
11	2	31	>>>>>	congruent	right	3	3	585
11	2	32	>>>>>	congruent	right	3	3	469
11	2	33	<<><<	incongruent	right	3	2	398
11	2	34	-->--	neutral	right	3	3	453
11	2	35	<<><<	incongruent	right	3	3	598
11	2	36	<<<<<	congruent	left	2	2	595
11	2	37	--<--	neutral	left	2	2	497
11	2	38	--<--	neutral	left	2	2	493
11	2	39	<<<<<	congruent	left	2	2	504
11	2	40	-->--	neutral	right	3	3	452
11	2	41	<<<<<	congruent	left	2	2	457
11	2	42	>>>>>	congruent	right	3	3	461
11	2	43	-->--	neutral	right	3	3	466
11	2	44	--<--	neutral	left	2	2	454
11	2	45	>>>>>	congruent	right	3	3	443
11	2	46	<<<<<	congruent	left	2	2	382
11	2	47	-->--	neutral	right	3	3	451
11	2	48	-->--	neutral	right	3	3	438
11	2	49	<<><<	incongruent	right	3	3	656
11	2	50	>><>>	incongruent	left	2	2	648
11	2	51	<<<<<	congruent	left	2	2	669
11	2	52	>><>>	incongruent	left	2	2	710
11	2	53	<<<<<	congruent	left	2	2	554
11	2	54	--<--	neutral	left	2	2	513
11	2	55	>><>>	incongruent	left	2	2	1292
11	2	56	>><>>	incongruent	left	2	2	1034
11	2	57	--<--	neutral	left	2	2	529
11	2	58	--<--	neutral	left	2	2	451
11	2	59	<<><<	incongruent	right	3	3	640
11	2	60	<<<<<	congruent	left	2	2	473
11	2	61	--<--	neutral	left	2	2	480
11	2	62	<<<<<	congruent	left	2	2	411
11	2	63	>><>>	incongruent	left	2	2	578
11	2	64	>><>>	incongruent	left	2	2	571
11	2	65	<<><<	incongruent	right	3	3	673
11	2	66	-->--	neutral	right	3	3	479
11	2	67	--<--	neutral	left	2	2	410
11	2	68	>><>>	incongruent	left	2	2	656
11	2	69	>><>>	incongruent	left	2	2	553
11	2	70	>>>>>	congruent	right	3	3	480
11	2	71	-->--	neutral	right	3	3	442
11	2	72	--<--	neutral	left	2	2	444
12	1	1	>><>>	incongruent	left	2	2	789
12	1	2	<<<<<	congruent	left	2	2	539
12	1	3	<<<<<	congruent	left	2	2	525
12	1	4	>>>>>	congruent	right	3	3	510
12	1	5	>>>>>	congruent	right	3	3	430
12	1	6	<<<<<	congruent	left	2	2	476
12	1	7	<<<<<	congruent	left	2	2	467
12	1	8	--<--	neutral	left	2	2	458
12	1	9	<<<<<	congruent	left	2	2	478
12	1	10	<<<<<	congruent	left	2	2	423
12	1	11	>><>>	incongruent	left	2	3	514
12	1	12	>><>>	incongruent	left	2	2	668
12	1	13	--<--	neutral	left	2	2	412
12	1	14	-->--	neutral	right	3	3	501
12	1	15	--<--	neutral	left	2	2	418
12	1	16	<<<<<	congruent	left	2	2	463
12	1	17	>>>>>	congruent	right	3	3	483
12	1	18	>>>>>	congruent	right	3	3	617
12	1	19	<<<<<	congruent	left	2	2	539
12	1	20	-->--	neutral	right	3	3	433
12	1	21	<<><<	incongruent	right	3	3	948
12	1	22	>><>>	incongruent	left	2	2	537
12	1	23	<<><<	incongruent	right	3	3	461
12	1	24	--<--	neutral	left	2	2	388
12	1	25	>>>>>	congruent	right	3	3	412
12	1	26	<<><<	incongruent	right	3	3	469
12	1	27	>><>>	incongruent	left	2	2	555
12	1	28	>><>>	incongruent	left	2	2	528
12	1	29	>>>>>	congruent	right	3	3	465
12	1	30	>>>>>	congruent	right	3	3	425
12	1	31	-->--	neutral	right	3	3	423
12	1	32	<<<<<	congruent	left	2	2	373
12	1	33	-->--	neutral	right	3	3	402
12	1	34	-->--	neutral	right	3	2	281
12	1	35	>>>>>	congruent	right	3	3	459
12	1	36	--<--	neutral	left	2	2	416
12	1	37	<<<<<	congruent	left	2	2	383
12	1	38	<<><<	incongruent	right	3	3	670
12	1	39	<<><<	incongruent	right	3	3	695
12	1	40	--<--	neutral	left	2	2	444
12	1	41	--<--	neutral	left	2	2	430
12	1	42	>>>>>	congruent	right	3	3	430
12	1	43	>>>>>	congruent	right	3	3	414
12	1	44	<<><<	incongruent	right	3	3	724
12	1	45	>><>>	incongruent	left	2	2	384
12	1	46	<<<<<	congruent	left	2	2	406
12	1	47	-->--	neutral	right	3	3	417
12	1	48	-->--	neutral	right	3	2	351
12	1	49	--<--	neutral	left	2	2	431
12	1	50	--<--	neutral	left	2	2	431
12	1	51	<<><<	incongruent	right	3	3	602
12	1	52	--<--	neutral	left	2	2	429
12	1	53	>><>>	incongruent	left	2	2	538
12	1	54	>><>>	incongruent	left	2	2	462
12	1	55	<<><<	incongruent	right	3	3	764
12	1	56	-->--	neutral	right	3	3	478
12	1	57	<<><<	incongruent	right	3	3	609
12	1	58	>>>>>	congruent	right	3	3	452
12	1	59	>>>>>	congruent	right	3	3	562
12	1	60	-->--	neutral	right	3	3	382
12	1	61	--<--	neutral	left	2	2	435
12	1	62	-->--	neutral	right	3	3	466
12	1	63	>><>>	incongruent	left	2	2	817
12	1	64	-->--	neutral	right	3	3	758
12	1	65	<<><<	incongruent	right	3	3	594
12	1	66	>><>>	incongruent	left	2	2	668
12	1	67	-->--	neutral	right	3	3	428
12	1	68	>><>>	incongruent	left	2	2	475
12	1	69	<<><<	incongruent	right	3	3	529
12	1	70	<<<<<	congruent	left	2	2	809
12	1	71	--<--	neutral	left	2	2	483
12	1	72	<<><<	incongruent	right	3	3	539
12	2	1	--<--	neutral	left	2	2	531
12	2	2	<<<<<	congruent	left	2	2	374
12	2	3	-->--	neutral	right	3	3	459
12	2	4	-->--	neutral	right	3	3	416
12	2	5	--<--	neutral	left	2	2	508
12	2	6	-->--	neutral	right	3	3	568
12	2	7	>>>>>	congruent	right	3	3	434
12	2	8	--<--	neutral	left	2	2	496
12	2	9	<<<<<	congruent	left	2	2	399
12	2	10	-->--	neutral	right	3	3	438
12	2	11	<<<<<	congruent	left	2	2	438
12	2	12	>>>>>	congruent	right	3	3	469
12	2	13	<<><<	incongruent	right	3	3	679
12	2	14	-->--	neutral	right	3	3	582
12	2	15	--<--	neutral	left	2	2	466
12	2	16	<<<<<	congruent	left	2	2	472
12	2	17	<<><<	incongruent	right	3	3	729
12	2	18	--<--	neutral	left	2	2	451
12	2	19	>><>>	incongruent	left	2	2	719
12	2	20	--<--	neutral	left	2	2	488
12	2	21	>>>>>	congruent	right	3	3	560
12	2	22	<<<<<	congruent	left	2	2	473
12	2	23	--<--	neutral	left	2	2	432
12	2	24	-->--	neutral	right	3	3	479
12	2	25	>><>>	incongruent	left	2	2	894
12	2	26	>>>>>	congruent	right	3	3	522
12	2	27	-->--	neutral	right	3	3	443
12	2	28	<<<<<	congruent	left	2	2	461
12	2	29	-->--	neutral	right	3	3	419
12	2	30	<<<<<	congruent	left	2	2	541
12	2	31	<<><<	incongruent	right	3	3	590
12	2	32	>><>>	incongruent	left	2	2	633
12	2	33	>><>>	incongruent	left	2	2	512
12	2	34	<<><<	incongruent	right	3	3	479
12	2	35	<<<<<	congruent	left	2	2	423
12	2	36	<<><<	incongruent	right	3	3	451
12	2	37	--<--	neutral	left	2	2	438
12	2	38	--<--	neutral	left	2	2	500
12	2	39	--<--	neutral	left	2	2	417
12	2	40	<<><<	incongruent	right	3	3	618
12	2	41	>><>>	incongruent	left	2	2	650
12	2	42	>>>>>	congruent	right	3	3	468
12	2	43	<<><<	incongruent	right	3	3	709
12	2	44	<<<<<	congruent	left	2	2	428
12	2	45	--<--	neutral	left	2	2	444
12	2	46	>><>>	incongruent	left	2	2	571
12	2	47	<<><<	incongruent	right	3	3	531
12	2	48	>>>>>	congruent	right	3	3	453
12	2	49	<<><<	incongruent	right	3	3	567
12	2	50	>><>>	incongruent	left	2	2	559
12	2	51	>><>>	incongruent	left	2	2	517
12	2	52	>><>>	incongruent	left	2	2	577
12	2	53	>>>>>	congruent	right	3	3	492
12	2	54	>>>>>	congruent	right	3	3	520
12	2	55	<<<<<	congruent	left	2	2	441
12	2	56	>><>>	incongruent	left	2	2	475
12	2	57	-->--	neutral	right	3	3	434
12	2	58	<<><<	incongruent	right	3	3	528
12	2	59	>>>>>	congruent	right	3	3	450
12	2	60	>>>>>	congruent	right	3	3	406
12	2	61	<<><<	incongruent	right	3	2	431
12	2	62	<<><<	incongruent	right	3	3	525
12	2	63	-->--	neutral	right	3	3	541
12	2	64	-->--	neutral	right	3	3	325
12	2	65	-->--	neutral	right	3	3	400
12	2	66	>>>>>	congruent	right	3	3	473
12	2	67	<<<<<	congruent	left	2	2	527
12	2	68	>><>>	incongruent	left	2	2	543
12	2	69	--<--	neutral	left	2	2	467
12	2	70	>>>>>	congruent	right	3	3	442
12	2	71	<<<<<	congruent	left	2	2	351
12	2	72	>><>>	incongruent	left	2	2	524
13	1	1	>><>>	incongruent	left	2	2	947
13	1	2	<<<<<	congruent	left	2	2	458
13	1	3	--<--	neutral	left	2	2	385
13	1	4	<<><<	incongruent	right	3	3	469
13	1	5	>>>>>	congruent	right	3	3	460
13	1	6	--<--	neutral	left	2	2	402
13	1	7	<<><<	incongruent	right	3	3	444
13	1	8	<<><<	incongruent	right	3	3	571
13	1	9	>>>>>	congruent	right	3	3	453
13	1	10	>><>>	incongruent	left	2	2	520
13	1	11	-->--	neutral	right	3	3	395
13	1	12	<<><<	incongruent	right	3	3	529
13	1	13	>><>>	incongruent	left	2	2	623
13	1	14	--<--	neutral	left	2	2	420
13	1	15	-->--	neutral	right	3	3	417
13	1	16	-->--	neutral	right	3	3	431
13	1	17	<<<<<	congruent	left	2	2	462
13	1	18	>><>>	incongruent	left	2	2	810
13	1	19	-->--	neutral	right	3	3	452
13	1	20	<<<<<	congruent	left	2	2	376
13	1	21	-->--	neutral	right	3	3	460
13	1	22	>>>>>	congruent	right	3	3	403
13	1	23	>><>>	incongruent	left	2	2	522
13	1	24	--<--	neutral	left	2	2	397
13	1	25	--<--	neutral	left	2	2	375
13	1	26	>>>>>	congruent	right	3	3	459
13	1	27	<<<<<	congruent	left	2	2	370
13	1	28	<<<<<	congruent	left	2	2	390
13	1	29	>><>>	incongruent	left	2	2	461
13	1	30	>><>>	incongruent	left	2	2	480
13	1	31	-->--	neutral	right	3	3	427
13	1	32	>>>>>	congruent	right	3	3	442
13	1	33	<<><<	incongruent	right	3	3	600
13	1	34	--<--	neutral	left	2	2	395
13	1	35	-->--	neutral	right	3	3	435
13	1	36	--<--	neutral	left	2	2	357
13	1	37	>>>>>	congruent	right	3	3	468
13	1	38	-->--	neutral	right	3	3	380
13	1	39	>>>>>	congruent	right	3	3	450
13	1	40	<<<<<	congruent	left	2	2	389
13	1	41	--<--	neutral	left	2	2	382
13	1	42	>><>>	incongruent	left	2	3	373
13	1	43	>>>>>	congruent	right	3	3	504
13	1	44	<<<<<	congruent	left	2	2	390
13	1	45	>><>>	incongruent	left	2	2	508
13	1	46	<<><<	incongruent	right	3	3	553
13	1	47	--<--	neutral	left	2	2	433
13	1	48	>>>>>	congruent	right	3	3	432
13	1	49	<<<<<	congruent	left	2	2	385
13	1	50	>>>>>	congruent	right	3	3	422
13	1	51	<<><<	incongruent	right	3	3	639
13	1	52	<<><<	incongruent	right	3	3	1331
13	1	53	<<><<	incongruent	right	3	3	548
13	1	54	<<<<<	congruent	left	2	2	365
13	1	55	>>>>>	congruent	right	3	2	665
13	1	56	-->--	neutral	right	3	3	503
13	1	57	>><>>	incongruent	left	2	2	546
13	1	58	<<<<<	congruent	left	2	2	410
13	1	59	<<><<	incongruent	right	3	3	750
13	1	60	--<--	neutral	left	2	2	445
13	1	61	-->--	neutral	right	3	3	463
13	1	62	--<--	neutral	left	2	2	451
13	1	63	>>>>>	congruent	right	3	3	501
13	1	64	<<><<	incongruent	right	3	3	636
13	1	65	<<<<<	congruent	left	2	2	389
13	1	66	<<<<<	congruent	left	2	2	413
13	1	67	-->--	neutral	right	3	3	599
13	1	68	-->--	neutral	right	3	3	486
13	1	69	--<--	neutral	left	2	2	416
13	1	70	>><>>	incongruent	left	2	2	601
13	1	71	>><>>	incongruent	left	2	2	537
13	1	72	<<><<	incongruent	right	3	3	821
13	2	1	<<<<<	congruent	left	2	2	438
13	2	2	<<<<<	congruent	left	2	2	391
13	2	3	-->--	neutral	right	3	3	525
13	2	4	--<--	neutral	left	2	2	510
13	2	5	<<<<<	congruent	left	2	2	414
13	2	6	<<><<	incongruent	right	3	3	755
13	2	7	-->--	neutral	right	3	3	481
13	2	8	>><>>	incongruent	left	2	2	537
13	2	9	-->--	neutral	right	3	3	447
13	2	10	>><>>	incongruent	left	2	2	557
13	2	11	<<<<<	congruent	left	2	2	453
13	2	12	<<<<<	congruent	left	2	2	364
13	2	13	--<--	neutral	left	2	2	539
13	2	14	>><>>	incongruent	left	2	2	433
13	2	15	>>>>>	congruent	right	3	3	432
13	2	16	>>>>>	congruent	right	3	3	463
13	2	17	<<<<<	congruent	left	2	2	436
13	2	18	>>>>>	congruent	right	3	3	467
13	2	19	-->--	neutral	right	3	3	442
13	2	20	>><>>	incongruent	left	2	2	414
13	2	21	<<><<	incongruent	right	3	3	505
13	2	22	--<--	neutral	left	2	2	360
13	2	23	-->--	neutral	right	3	3	489
13	2	24	>>>>>	congruent	right	3	3	482
13	2	25	-->--	neutral	right	3	3	475
13	2	26	<<<<<	congruent	left	2	2	373
13	2	27	<<><<	incongruent	right	3	3	739
13	2	28	>>>>>	congruent	right	3	3	556
13	2	29	-->--	neutral	right	3	3	405
13	2	30	--<--	neutral	left	2	2	385
13	2	31	>><>>	incongruent	left	2	2	500
13	2	32	<<<<<	congruent	left	2	2	418
13	2	33	>><>>	incongruent	left	2	2	478
13	2	34	-->--	neutral	right	3	3	469
13	2	35	<<<<<	congruent	left	2	2	381
13	2	36	--<--	neutral	left	2	2	372
13	2	37	--<--	neutral	left	2	2	441
13	2	38	<<><<	incongruent	right	3	3	490
13	2	39	<<><<	incongruent	right	3	3	608
13	2	40	>>>>>	congruent	right	3	3	544
13	2	41	>>>>>	congruent	right	3	3	499
13	2	42	<<><<	incongruent	right	3	3	573
13	2	43	<<<<<	congruent	left	2	2	457
13	2	44	>>>>>	congruent	right	3	3	541
13	2	45	--<--	neutral	left	2	2	433
13	2	46	<<><<	incongruent	right	3	3	808
13	2	47	-->--	neutral	right	3	3	544
13	2	48	<<><<	incongruent	right	3	3	796
13	2	49	-->--	neutral	right	3	3	468
13	2	50	<<<<<	congruent	left	2	2	537
13	2	51	--<--	neutral	left	2	2	461
13	2	52	-->--	neutral	right	3	2	528
13	2	53	>><>>	incongruent	left	2	2	591
13	2	54	>><>>	incongruent	left	2	2	587
13	2	55	>><>>	incongruent	left	2	2	551
13	2	56	--<--	neutral	left	2	2	447
13	2	57	--<--	neutral	left	2	2	418
13	2	58	-->--	neutral	right	3	3	494
13	2	59	>>>>>	congruent	right	3	3	583
13	2	60	<<><<	incongruent	right	3	3	779
13	2	61	>>>>>	congruent	right	3	3	433
13	2	62	>><>>	incongruent	left	2	2	511
13	2	63	<<><<	incongruent	right	3	3	790
13	2	64	>>>>>	congruent	right	3	3	461
13	2	65	>><>>	incongruent	left	2	2	481
13	2	66	<<<<<	congruent	left	2	2	396
13	2	67	--<--	neutral	left	2	2	451
13	2	68	>>>>>	congruent	right	3	3	610
13	2	69	<<><<	incongruent	right	3	3	608
13	2	70	>><>>	incongruent	left	2	2	623
13	2	71	<<><<	incongruent	right	3	3	1014
13	2	72	--<--	neutral	left	2	2	396
14	1	1	--<--	neutral	left	2	2	441
14	1	2	>>>>>	congruent	right	3	3	427
14	1	3	<<><<	incongruent	right	3	3	505
14	1	4	>>>>>	congruent	right	3	3	423
14	1	5	<<<<<	congruent	left	2	2	388
14	1	6	--<--	neutral	left	2	2	428
14	1	7	>>>>>	congruent	right	3	3	381
14	1	8	--<--	neutral	left	2	2	372
14	1	9	--<--	neutral	left	2	2	375
14	1	10	>>>>>	congruent	right	3	3	413
14	1	11	<<<<<	congruent	left	2	2	373
14	1	12	-->--	neutral	right	3	3	386
14	1	13	--<--	neutral	left	2	2	363
14	1	14	--<--	neutral	left	2	2	429
14	1	15	-->--	neutral	right	3	3	382
14	1	16	<<><<	incongruent	right	3	3	451
14	1	17	>>>>>	congruent	right	3	3	422
14	1	18	<<<<<	congruent	left	2	2	388
14	1	19	--<--	neutral	left	2	2	379
14	1	20	>>>>>	congruent	right	3	3	371
14	1	21	<<><<	incongruent	right	3	3	516
14	1	22	<<<<<	congruent	left	2	2	342
14	1	23	-->--	neutral	right	3	3	373
14	1	24	>>>>>	congruent	right	3	3	332
14	1	25	-->--	neutral	right	3	3	360
14	1	26	-->--	neutral	right	3	3	332
14	1	27	>>>>>	congruent	right	3	3	379
14	1	28	<<<<<	congruent	left	2	2	431
14	1	29	--<--	neutral	left	2	2	385
14	1	30	>><>>	incongruent	left	2	2	626
14	1	31	--<--	neutral	left	2	2	394
14	1	32	<<><<	incongruent	right	3	3	434
14	1	33	>><>>	incongruent	left	2	2	496
14	1	34	--<--	neutral	left	2	2	382
14	1	35	-->--	neutral	right	3	3	389
14	1	36	<<><<	incongruent	right	3	3	444
14	1	37	<<<<<	congruent	left	2	2	383
14	1	38	<<<<<	congruent	left	2	2	358
14	1	39	>><>>	incongruent	left	2	2	485
14	1	40	<<><<	incongruent	right	3	3	479
14	1	41	<<><<	incongruent	right	3	3	563
14	1	42	<<><<	incongruent	right	3	3	476
14	1	43	>><>>	incongruent	left	2	2	436
14	1	44	>><>>	incongruent	left	2	2	499
14	1	45	-->--	neutral	right	3	3	416
14	1	46	<<<<<	congruent	left	2	2	413
14	1	47	<<<<<	congruent	left	2	2	458
14	1	48	>><>>	incongruent	left	2	2	493
14	1	49	<<<<<	congruent	left	2	2	380
14	1	50	<<><<	incongruent	right	3	3	432
14	1	51	-->--	neutral	right	3	3	448
14	1	52	<<><<	incongruent	right	3	3	434
14	1	53	>><>>	incongruent	left	2	2	481
14	1	54	--<--	neutral	left	2	2	381
14	1	55	>><>>	incongruent	left	2	2	480
14	1	56	<<><<	incongruent	right	3	3	458
14	1	57	>>>>>	congruent	right	3	3	431
14	1	58	-->--	neutral	right	3	3	446
14	1	59	-->--	neutral	right	3	3	370
14	1	60	--<--	neutral	left	2	2	422
14	1	61	>>>>>	congruent	right	3	3	419
14	1	62	>><>>	incongruent	left	2	2	464
14	1	63	-->--	neutral	right	3	3	374
14	1	64	>><>>	incongruent	left	2	2	426
14	1	65	<<><<	incongruent	right	3	3	582
14	1	66	<<<<<	congruent	left	2	2	358
14	1	67	<<<<<	congruent	left	2	2	375
14	1	68	>><>>	incongruent	left	2	2	506
14	1	69	-->--	neutral	right	3	3	410
14	1	70	>>>>>	congruent	right	3	3	437
14	1	71	>>>>>	congruent	right	3	3	436
14	1	72	>><>>	incongruent	left	2	2	577
14	2	1	>><>>	incongruent	left	2	2	372
14	2	2	<<<<<	congruent	left	2	2	394
14	2	3	<<<<<	congruent	left	2	2	372
14	2	4	>>>>>	congruent	right	3	3	437
14	2	5	<<><<	incongruent	right	3	3	507
14	2	6	<<<<<	congruent	left	2	2	357
14	2	7	>><>>	incongruent	left	2	2	530
14	2	8	>>>>>	congruent	right	3	3	437
14	2	9	--<--	neutral	left	2	2	358
14	2	10	<<><<	incongruent	right	3	3	488
14	2	11	<<<<<	congruent	left	2	2	356
15	1	1	--<--	neutral	left	2	2	553
15	1	2	-->--	neutral	right	3	3	496
15	1	3	<<><<	incongruent	right	3	3	710
15	1	4	<<<<<	congruent	left	2	2	461
15	1	5	>>>>>	congruent	right	3	3	403
15	1	6	>><>>	incongruent	left	2	2	617
15	1	7	--<--	neutral	left	2	2	476
15	1	8	<<><<	incongruent	right	3	3	515
15	1	9	<<><<	incongruent	right	3	3	497
15	1	10	<<<<<	congruent	left	2	2	399
15	1	11	--<--	neutral	left	2	2	441
15	1	12	-->--	neutral	right	3	3	412
15	1	13	<<<<<	congruent	left	2	2	454
15	1	14	-->--	neutral	right	3	3	490
15	1	15	<<><<	incongruent	right	3	3	515
15	1	16	<<><<	incongruent	right	3	3	637
15	1	17	>>>>>	congruent	right	3	3	484
15	1	18	--<--	neutral	left	2	2	446
15	1	19	>>>>>	congruent	right	3	3	588
15	1	20	-->--	neutral	right	3	3	600
15	1	21	>>>>>	congruent	right	3	3	536
15	1	22	>><>>	incongruent	left	2	2	804
15	1	23	>><>>	incongruent	left	2	2	509
15	1	24	-->--	neutral	right	3	3	476
15	1	25	<<><<	incongruent	right	3	2	373
15	1	26	>>>>>	congruent	right	3	3	426
15	1	27	--<--	neutral	left	2	2	394
15	1	28	<<<<<	congruent	left	2	2	668
15	1	29	<<><<	incongruent	right	3	3	663
15	1	30	<<><<	incongruent	right	3	3	592
15	1	31	--<--	neutral	left	2	2	416
15	1	32	>><>>	incongruent	left	2	2	570
15	1	33	<<<<<	congruent	left	2	2	483
15	1	34	-->--	neutral	right	3	3	508
15	1	35	>>>>>	congruent	right	3	3	459
15	1	36	>>>>>	congruent	right	3	3	604
15	1	37	--<--	neutral	left	2	2	431
15	1	38	>><>>	incongruent	left	2	2	681
15	1	39	>>>>>	congruent	right	3	3	817
15	1	40	-->--	neutral	right	3	3	1071
15	1	41	<<<<<	congruent	left	2	2	665
15	1	42	>><>>	incongruent	left	2	2	832
15	1	43	>><>>	incongruent	left	2	2	650
15	1	44	>><>>	incongruent	left	2	2	606
15	1	45	--<--	neutral	left	2	2	466
15	1	46	<<<<<	congruent	left	2	2	520
15	1	47	--<--	neutral	left	2	2	489
15	1	48	<<<<<	congruent	left	2	2	482
15	1	49	<<<<<	congruent	left	2	2	523
15	1	50	<<><<	incongruent	right	3	3	835
15	1	51	<<<<<	congruent	left	2	2	404
15	1	52	-->--	neutral	right	3	3	556
15	1	53	>><>>	incongruent	left	2	2	576
15	1	54	>>>>>	congruent	right	3	3	663
15	1	55	--<--	neutral	left	2	2	640
15	1	56	<<><<	incongruent	right	3	3	739
15	1	57	--<--	neutral	left	2	2	603
15	1	58	>>>>>	congruent	right	3	3	696
15	1	59	>>>>>	congruent	right	3	3	632
15	1	60	<<<<<	congruent	left	2	2	526
15	1	61	<<><<	incongruent	right	3	3	650
15	1	62	>><>>	incongruent	left	2	2	640
15	1	63	<<<<<	congruent	left	2	2	552
15	1	64	-->--	neutral	right	3	3	463
15	1	65	>><>>	incongruent	left	2	2	499
15	1	66	-->--	neutral	right	3	3	572
15	1	67	>>>>>	congruent	right	3	3	722
15	1	68	>><>>	incongruent	left	2	2	460
15	1	69	-->--	neutral	right	3	3	558
15	1	70	<<><<	incongruent	right	3	3	579
15	1	71	--<--	neutral	left	2	2	572
15	1	72	-->--	neutral	right	3	3	504
15	2	1	<<<<<	congruent	left	2	2	598
15	2	2	<<><<	incongruent	right	3	3	610
15	2	3	<<<<<	congruent	left	2	2	499
15	2	4	--<--	neutral	left	2	2	447
15	2	5	-->--	neutral	right	3	3	436
15	2	6	<<><<	incongruent	right	3	2	371
15	2	7	<<><<	incongruent	right	3	3	563
15	2	8	<<><<	incongruent	right	3	3	678
15	2	9	>><>>	incongruent	left	2	2	580
15	2	10	>>>>>	congruent	right	3	3	651
15	2	11	>><>>	incongruent	left	2	2	594
15	2	12	>>>>>	congruent	right	3	3	512
15	2	13	>>>>>	congruent	right	3	3	634
15	2	14	>><>>	incongruent	left	2	2	528
15	2	15	--<--	neutral	left	2	2	513
15	2	16	>><>>	incongruent	left	2	2	917
15	2	17	--<--	neutral	left	2	2	671
15	2	18	<<><<	incongruent	right	3	3	728
15	2	19	--<--	neutral	left	2	2	622
15	2	20	-->--	neutral	right	3	3	732
15	2	21	--<--	neutral	left	2	2	643
15	2	22	<<<<<	congruent	left	2	2	711
15	2	23	<<<<<	congruent	left	2	2	526
15	2	24	<<<<<	congruent	left	2	2	588
15	2	25	-->--	neutral	right	3	3	662
15	2	26	--<--	neutral	left	2	2	514
15	2	27	>><>>	incongruent	left	2	2	605
15	2	28	>>>>>	congruent	right	3	3	1088
15	2	29	<<><<	incongruent	right	3	3	810
15	2	30	>>>>>	congruent	right	3	3	811
15	2	31	<<<<<	congruent	left	2	2	579
15	2	32	--<--	neutral	left	2	2	478
15	2	33	-->--	neutral	right	3	3	625
15	2	34	-->--	neutral	right	3	3	550
15	2	35	<<<<<	congruent	left	2	2	446
15	2	36	<<<<<	congruent	left	2	0	0
15	2	37	>>>>>	congruent	right	3	0	0
15	2	38	>><>>	incongruent	left	2	2	627
15	2	39	<<><<	incongruent	right	3	3	708
15	2	40	--<--	neutral	left	2	2	537
15	2	41	>>>>>	congruent	right	3	3	681
15	2	42	<<<<<	congruent	left	2	2	522
15	2	43	>><>>	incongruent	left	2	2	552
15	2	44	>><>>	incongruent	left	2	2	652
15	2	45	<<<<<	congruent	left	2	2	531
15	2	46	>><>>	incongruent	left	2	2	656
15	2	47	-->--	neutral	right	3	3	602
15	2	48	<<<<<	congruent	left	2	2	568
15	2	49	>>>>>	congruent	right	3	3	732
15	2	50	<<><<	incongruent	right	3	3	707
15	2	51	-->--	neutral	right	3	3	692
15	2	52	<<<<<	congruent	left	2	2	847
15	2	53	--<--	neutral	left	2	2	1074
15	2	54	-->--	neutral	right	3	3	747
15	2	55	>><>>	incongruent	left	2	2	802
15	2	56	<<><<	incongruent	right	3	3	944
15	2	57	-->--	neutral	right	3	3	577
15	2	58	>><>>	incongruent	left	2	2	634
15	2	59	>><>>	incongruent	left	2	2	590
15	2	60	--<--	neutral	left	2	2	508
15	2	61	>>>>>	congruent	right	3	3	537
15	2	62	--<--	neutral	left	2	2	477
15	2	63	-->--	neutral	right	3	3	531
15	2	64	>>>>>	congruent	right	3	3	547
15	2	65	<<><<	incongruent	right	3	3	645
15	2	66	<<><<	incongruent	right	3	3	620
15	2	67	>>>>>	congruent	right	3	3	510
15	2	68	--<--	neutral	left	2	2	493
15	2	69	-->--	neutral	right	3	3	551
15	2	70	>>>>>	congruent	right	3	3	493
15	2	71	<<><<	incongruent	right	3	2	504
15	2	72	-->--	neutral	right	3	3	469
16	1	1	<<<<<	congruent	left	2	2	578
16	1	2	>>>>>	congruent	right	3	3	478
16	1	3	--<--	neutral	left	2	2	469
16	1	4	>>>>>	congruent	right	3	3	398
16	1	5	-->--	neutral	right	3	3	469
16	1	6	-->--	neutral	right	3	3	382
16	1	7	<<><<	incongruent	right	3	3	606
16	1	8	--<--	neutral	left	2	2	527
16	1	9	>>>>>	congruent	right	3	3	402
16	1	10	>>>>>	congruent	right	3	3	475
16	1	11	<<><<	incongruent	right	3	2	435
16	1	12	--<--	neutral	left	2	2	529
16	1	13	>><>>	incongruent	left	2	2	528
16	1	14	<<><<	incongruent	right	3	3	544
16	1	15	>><>>	incongruent	left	2	2	532
16	1	16	>><>>	incongruent	left	2	2	578
16	1	17	>>>>>	congruent	right	3	3	557
16	1	18	<<<<<	congruent	left	2	2	577
16	1	19	>>>>>	congruent	right	3	3	633
16	1	20	-->--	neutral	right	3	3	449
16	1	21	--<--	neutral	left	2	2	451
16	1	22	<<><<	incongruent	right	3	3	515
16	1	23	<<<<<	congruent	left	2	2	451
16	1	24	>>>>>	congruent	right	3	3	469
16	1	25	--<--	neutral	left	2	2	460
16	1	26	<<><<	incongruent	right	3	2	542
16	1	27	<<<<<	congruent	left	2	2	513
16	1	28	-->--	neutral	right	3	3	433
16	1	29	--<--	neutral	left	2	2	511
16	1	30	-->--	neutral	right	3	3	462
16	1	31	<<><<	incongruent	right	3	3	482
16	1	32	>><>>	incongruent	left	2	2	506
16	1	33	>><>>	incongruent	left	2	2	505
16	1	34	<<<<<	congruent	left	2	2	391
16	1	35	-->--	neutral	right	3	3	493
16	1	36	<<><<	incongruent	right	3	3	644
16	1	37	<<<<<	congruent	left	2	2	462
16	1	38	<<><<	incongruent	right	3	3	530
16	1	39	<<><<	incongruent	right	3	3	546
16	1	40	>>>>>	congruent	right	3	3	519
16	1	41	>><>>	incongruent	left	2	2	722
16	1	42	-->--	neutral	right	3	3	522
16	1	43	<<<<<	congruent	left	2	2	491
16	1	44	-->--	neutral	right	3	3	454
16	1	45	<<><<	incongruent	right	3	3	583
16	1	46	<<<<<	congruent	left	2	2	499
16	1	47	--<--	neutral	left	2	2	556
16	1	48	<<<<<	congruent	left	2	2	405
16	1	49	-->--	neutral	right	3	3	447
16	1	50	<<><<	incongruent	right	3	3	528
16	1	51	>>>>>	congruent	right	3	3	544
16	1	52	--<--	neutral	left	2	2	421
16	1	53	>><>>	incongruent	left	2	2	465
16	1	54	>>>>>	congruent	right	3	3	438
16	1	55	<<><<	incongruent	right	3	3	657
16	1	56	>><>>	incongruent	left	2	2	508
16	1	57	<<<<<	congruent	left	2	2	389
16	1	58	>><>>	incongruent	left	2	2	499
16	1	59	--<--	neutral	left	2	2	447
16	1	60	<<<<<	congruent	left	2	2	356
16	1	61	--<--	neutral	left	2	2	358
16	1	62	>>>>>	congruent	right	3	3	500
16	1	63	--<--	neutral	left	2	2	386
16	1	64	--<--	neutral	left	2	2	363
16	1	65	-->--	neutral	right	3	3	461
16	1	66	>><>>	incongruent	left	2	2	528
16	1	67	-->--	neutral	right	3	3	434
16	1	68	-->--	neutral	right	3	3	465
16	1	69	>><>>	incongruent	left	2	2	391
16	1	70	>><>>	incongruent	left	2	2	541
16	1	71	<<<<<	congruent	left	2	2	355
16	1	72	>>>>>	congruent	right	3	3	482
16	2	1	--<--	neutral	left	2	2	402
16	2	2	>><>>	incongruent	left	2	2	506
16	2	3	<<<<<	congruent	left	2	2	348
16	2	4	--<--	neutral	left	2	2	349
16	2	5	<<><<	incongruent	right	3	2	570
16	2	6	>>>>>	congruent	right	3	3	530
16	2	7	<<><<	incongruent	right	3	3	562
16	2	8	--<--	neutral	left	2	2	475
16	2	9	--<--	neutral	left	2	2	388
16	2	10	>>>>>	congruent	right	3	3	506
16	2	11	-->--	neutral	right	3	3	410
16	2	12	<<<<<	congruent	left	2	2	374
16	2	13	-->--	neutral	right	3	3	442
16	2	14	<<><<	incongruent	right	3	3	492
16	2	15	>><>>	incongruent	left	2	2	548
16	2	16	--<--	neutral	left	2	2	412
16	2	17	>>>>>	congruent	right	3	3	501
16	2	18	--<--	neutral	left	2	2	371
16	2	19	<<<<<	congruent	left	2	2	391
16	2	20	<<><<	incongruent	right	3	3	571
16	2	21	>><>>	incongruent	left	2	2	500
16	2	22	--<--	neutral	left	2	2	417
16	2	23	>>>>>	congruent	right	3	3	462
16	2	24	<<><<	incongruent	right	3	3	607
16	2	25	-->--	neutral	right	3	3	465
16	2	26	<<><<	incongruent	right	3	3	500
16	2	27	--<--	neutral	left	2	2	480
16	2	28	-->--	neutral	right	3	3	473
16	2	29	<<><<	incongruent	right	3	3	558
16	2	30	>>>>>	congruent	right	3	3	470
16	2	31	>><>>	incongruent	left	2	2	539
16	2	32	>><>>	incongruent	left	2	2	556
16	2	33	-->--	neutral	right	3	3	530
16	2	34	>><>>	incongruent	left	2	2	593
16	2	35	-->--	neutral	right	3	3	448
16	2	36	<<><<	incongruent	right	3	3	513
16	2	37	>>>>>	congruent	right	3	3	464
16	2	38	<<<<<	congruent	left	2	2	468
16	2	39	-->--	neutral	right	3	3	475
16	2	40	<<><<	incongruent	right	3	3	685
16	2	41	<<<<<	congruent	left	2	2	541
16	2	42	>><>>	incongruent	left	2	2	543
16	2	43	>>>>>	congruent	right	3	3	498
16	2	44	-->--	neutral	right	3	3	494
16	2	45	>><>>	incongruent	left	2	2	615
16	2	46	>>>>>	congruent	right	3	3	522
16	2	47	<<<<<	congruent	left	2	2	507
16	2	48	<<><<	incongruent	right	3	3	786
16	2	49	>>>>>	congruent	right	3	3	519
16	2	50	>><>>	incongruent	left	2	2	551
16	2	51	--<--	neutral	left	2	2	431
16	2	52	>><>>	incongruent	left	2	2	571
16	2	53	--<--	neutral	left	2	2	406
16	2	54	-->--	neutral	right	3	3	526
16	2	55	>>>>>	congruent	right	3	3	495
16	2	56	<<><<	incongruent	right	3	3	507
16	2	57	-->--	neutral	right	3	3	584
16	2	58	>>>>>	congruent	right	3	3	482
16	2	59	--<--	neutral	left	2	2	507
16	2	60	<<<<<	congruent	left	2	2	505
16	2	61	>><>>	incongruent	left	2	2	563
16	2	62	-->--	neutral	right	3	3	492
16	2	63	-->--	neutral	right	3	3	407
16	2	64	<<<<<	congruent	left	2	2	684
16	2	65	>>>>>	congruent	right	3	3	462
16	2	66	--<--	neutral	left	2	2	512
16	2	67	<<<<<	congruent	left	2	2	448
16	2	68	>><>>	incongruent	left	2	2	606
16	2	69	<<<<<	congruent	left	2	2	449
16	2	70	<<<<<	congruent	left	2	2	451
16	2	71	<<><<	incongruent	right	3	3	718
16	2	72	<<<<<	congruent	left	2	2	532
17	1	1	>><>>	incongruent	left	2	2	593
17	1	2	<<<<<	congruent	left	2	2	574
17	1	3	<<<<<	congruent	left	2	2	520
17	1	4	<<<<<	congruent	left	2	2	442
17	1	5	--<--	neutral	left	2	2	398
17	1	6	>>>>>	congruent	right	3	3	422
17	1	7	-->--	neutral	right	3	3	450
17	1	8	<<><<	incongruent	right	3	3	546
17	1	9	--<--	neutral	left	2	2	395
17	1	10	--<--	neutral	left	2	2	403
17	1	11	>><>>	incongruent	left	2	2	555
17	1	12	>><>>	incongruent	left	2	2	466
17	1	13	--<--	neutral	left	2	2	410
17	1	14	>><>>	incongruent	left	2	2	452
17	1	15	-->--	neutral	right	3	3	457
17	1	16	>><>>	incongruent	left	2	2	477
17	1	17	<<><<	incongruent	right	3	3	467
17	1	18	--<--	neutral	left	2	2	443
17	1	19	>>>>>	congruent	right	3	3	445
17	1	20	--<--	neutral	left	2	2	416
17	1	21	<<<<<	congruent	left	2	2	413
17	1	22	-->--	neutral	right	3	3	535
17	1	23	<<><<	incongruent	right	3	3	523
17	1	24	-->--	neutral	right	3	3	508
17	1	25	>><>>	incongruent	left	2	2	521
17	1	26	<<><<	incongruent	right	3	3	475
17	1	27	<<><<	incongruent	right	3	3	481
17	1	28	<<<<<	congruent	left	2	2	489
17	1	29	-->--	neutral	right	3	3	452
17	1	30	--<--	neutral	left	2	2	454
17	1	31	-->--	neutral	right	3	3	411
17	1	32	-->--	neutral	right	3	3	485
17	1	33	>>>>>	congruent	right	3	3	494
17	1	34	>>>>>	congruent	right	3	3	426
17	1	35	<<><<	incongruent	right	3	3	567
17	1	36	>><>>	incongruent	left	2	2	464
17	1	37	>>>>>	congruent	right	3	3	423
17	1	38	-->--	neutral	right	3	3	420
17	1	39	<<<<<	congruent	left	2	2	432
17	1	40	<<<<<	congruent	left	2	2	371
17	1	41	--<--	neutral	left	2	2	389
17	1	42	>>>>>	congruent	right	3	3	460
17	1	43	-->--	neutral	right	3	3	434
17	1	44	<<><<	incongruent	right	3	3	590
17	1	45	<<><<	incongruent	right	3	3	602
17	1	46	<<<<<	congruent	left	2	2	584
17	1	47	--<--	neutral	left	2	2	562
17	1	48	<<><<	incongruent	right	3	3	444
17	1	49	<<<<<	congruent	left	2	2	431
17	1	50	>>>>>	congruent	right	3	3	462
17	1	51	<<><<	incongruent	right	3	3	591
17	1	52	>>>>>	congruent	right	3	3	415
17	1	53	-->--	neutral	right	3	3	460
17	1	54	-->--	neutral	right	3	3	433
17	1	55	>>>>>	congruent	right	3	3	401
17	1	56	>><>>	incongruent	left	2	2	584
17	1	57	>><>>	incongruent	left	2	2	531
17	1	58	>><>>	incongruent	left	2	2	546
17	1	59	>><>>	incongruent	left	2	2	536
17	1	60	<<<<<	congruent	left	2	2	429
17	1	61	<<><<	incongruent	right	3	3	601
17	1	62	>>>>>	congruent	right	3	3	412
17	1	63	>>>>>	congruent	right	3	3	517
17	1	64	>><>>	incongruent	left	2	2	530
17	1	65	>>>>>	congruent	right	3	3	670
17	1	66	-->--	neutral	right	3	3	603
17	1	67	--<--	neutral	left	2	2	428
17	1	68	<<<<<	congruent	left	2	2	412
17	1	69	<<><<	incongruent	right	3	3	473
17	1	70	<<<<<	congruent	left	2	2	401
17	1	71	--<--	neutral	left	2	2	397
17	1	72	--<--	neutral	left	2	2	390
17	2	1	<<><<	incongruent	right	3	3	465
17	2	2	--<--	neutral	left	2	2	485
17	2	3	--<--	neutral	left	2	2	415
17	2	4	-->--	neutral	right	3	3	445
17	2	5	>><>>	incongruent	left	2	2	494
17	2	6	<<<<<	congruent	left	2	2	411
17	2	7	>>>>>	congruent	right	3	3	485
17	2	8	--<--	neutral	left	2	2	430
17	2	9	-->--	neutral	right	3	3	400
17	2	10	>><>>	incongruent	left	2	2	519
17	2	11	<<><<	incongruent	right	3	3	551
17	2	12	<<><<	incongruent	right	3	3	571
17	2	13	>>>>>	congruent	right	3	3	406
17	2	14	>><>>	incongruent	left	2	2	511
17	2	15	<<><<	incongruent	right	3	3	493
17	2	16	-->--	neutral	right	3	3	457
17	2	17	>><>>	incongruent	left	2	2	540
17	2	18	<<><<	incongruent	right	3	3	574
17	2	19	--<--	neutral	left	2	2	412
17	2	20	<<<<<	congruent	left	2	2	437
17	2	21	--<--	neutral	left	2	2	437
17	2	22	>>>>>	congruent	right	3	3	453
17	2	23	--<--	neutral	left	2	2	457
17	2	24	>>>>>	congruent	right	3	3	555
17	2	25	--<--	neutral	left	2	2	451
17	2	26	>><>>	incongruent	left	2	2	546
17	2	27	>>>>>	congruent	right	3	3	504
17	2	28	<<><<	incongruent	right	3	3	547
17	2	29	-->--	neutral	right	3	3	474
17	2	30	>><>>	incongruent	left	2	2	480
17	2	31	-->--	neutral	right	3	3	412
17	2	32	>><>>	incongruent	left	2	2	516
17	2	33	<<<<<	congruent	left	2	2	389
17	2	34	--<--	neutral	left	2	2	444
17	2	35	<<<<<	congruent	left	2	2	430
17	2	36	<<<<<	congruent	left	2	2	415
17	2	37	>>>>>	congruent	right	3	3	428
17	2	38	>><>>	incongruent	left	2	2	787
17	2	39	>>>>>	congruent	right	3	3	552
17	2	40	>>>>>	congruent	right	3	3	556
17	2	41	<<<<<	congruent	left	2	2	453
17	2	42	-->--	neutral	right	3	3	485
17	2	43	>><>>	incongruent	left	2	2	510
17	2	44	<<><<	incongruent	right	3	3	648
17	2	45	>>>>>	congruent	right	3	3	451
17	2	46	<<<<<	congruent	left	2	2	390
17	2	47	-->--	neutral	right	3	3	461
17	2	48	--<--	neutral	left	2	2	450
17	2	49	>><>>	incongruent	left	2	2	499
17	2	50	>><>>	incongruent	left	2	2	510
17	2	51	<<<<<	congruent	left	2	2	414
17	2	52	--<--	neutral	left	2	2	396
17	2	53	<<><<	incongruent	right	3	3	530
17	2	54	>>>>>	congruent	right	3	3	436
17	2	55	-->--	neutral	right	3	3	436
17	2	56	<<><<	incongruent	right	3	3	607
17	2	57	<<<<<	congruent	left	2	2	434
17	2	58	<<><<	incongruent	right	3	3	574
17	2	59	>><>>	incongruent	left	2	2	458
17	2	60	<<><<	incongruent	right	3	3	463
17	2	61	-->--	neutral	right	3	3	374
17	2	62	<<<<<	congruent	left	2	2	427
17	2	63	--<--	neutral	left	2	2	458
17	2	64	--<--	neutral	left	2	2	431
17	2	65	-->--	neutral	right	3	3	415
17	2	66	<<><<	incongruent	right	3	3	443
17	2	67	-->--	neutral	right	3	3	383
17	2	68	-->--	neutral	right	3	3	468
17	2	69	<<<<<	congruent	left	2	2	506
17	2	70	<<<<<	congruent	left	2	2	425
17	2	71	>>>>>	congruent	right	3	3	579
17	2	72	>>>>>	congruent	right	3	3	432
18	1	1	-->--	neutral	right	3	3	443
18	1	2	>>>>>	congruent	right	3	3	398
18	1	3	>><>>	incongruent	left	2	2	563
18	1	4	>>>>>	congruent	right	3	3	413
18	1	5	--<--	neutral	left	2	2	396
18	1	6	--<--	neutral	left	2	2	357
18	1	7	-->--	neutral	right	3	3	390
18	1	8	>>>>>	congruent	right	3	3	399
18	1	9	<<<<<	congruent	left	2	2	360
18	1	10	-->--	neutral	right	3	3	364
18	1	11	--<--	neutral	left	2	2	368
18	1	12	-->--	neutral	right	3	3	340
18	1	13	>><>>	incongruent	left	2	2	636
18	1	14	-->--	neutral	right	3	3	343
18	1	15	>>>>>	congruent	right	3	3	373
18	1	16	>><>>	incongruent	left	2	2	442
18	1	17	>>>>>	congruent	right	3	3	382
18	1	18	<<<<<	congruent	left	2	2	373
18	1	19	>>>>>	congruent	right	3	3	394
18	1	20	>><>>	incongruent	left	2	2	449
18	1	21	--<--	neutral	left	2	2	389
18	1	22	<<><<	incongruent	right	3	2	507
18	1	23	>><>>	incongruent	left	2	2	474
18	1	24	<<><<	incongruent	right	3	2	386
18	1	25	<<<<<	congruent	left	2	2	426
18	1	26	<<><<	incongruent	right	3	3	395
18	1	27	<<<<<	congruent	left	2	2	372
18	1	28	>>>>>	congruent	right	3	3	298
18	1	29	-->--	neutral	right	3	3	509
18	1	30	<<><<	incongruent	right	3	2	413
18	1	31	--<--	neutral	left	2	2	395
18	1	32	<<<<<	congruent	left	2	2	419
18	1	33	-->--	neutral	right	3	3	369
18	1	34	<<<<<	congruent	left	2	2	420
18	1	35	-->--	neutral	right	3	3	355
18	1	36	--<--	neutral	left	2	2	356
18	1	37	<<><<	incongruent	right	3	3	531
18	1	38	<<<<<	congruent	left	2	2	405
18	1	39	<<><<	incongruent	right	3	3	513
18	1	40	-->--	neutral	right	3	3	461
18	1	41	--<--	neutral	left	2	2	372
18	1	42	<<><<	incongruent	right	3	3	407
18	1	43	<<><<	incongruent	right	3	3	605
18	1	44	<<<<<	congruent	left	2	2	401
18	1	45	<<><<	incongruent	right	3	3	459
18	1	46	>>>>>	congruent	right	3	3	400
18	1	47	>><>>	incongruent	left	2	2	520
18	1	48	--<--	neutral	left	2	2	396
18	1	49	>>>>>	congruent	right	3	3	373
18	1	50	<<<<<	congruent	left	2	2	410
18	1	51	>><>>	incongruent	left	2	2	562
18	1	52	-->--	neutral	right	3	3	397
18	1	53	--<--	neutral	left	2	2	406
18	1	54	-->--	neutral	right	3	3	400
18	1	55	<<<<<	congruent	left	2	2	411
18	1	56	-->--	neutral	right	3	3	407
18	1	57	<<><<	incongruent	right	3	3	480
18	1	58	--<--	neutral	left	2	2	379
18	1	59	<<><<	incongruent	right	3	3	417
18	1	60	>>>>>	congruent	right	3	3	398
18	1	61	>>>>>	congruent	right	3	3	360
18	1	62	>><>>	incongruent	left	2	2	474
18	1	63	>><>>	incongruent	left	2	2	480
18	1	64	>>>>>	congruent	right	3	3	364
18	1	65	<<<<<	congruent	left	2	2	383
18	1	66	<<<<<	congruent	left	2	2	374
18	1	67	>><>>	incongruent	left	2	2	427
18	1	68	<<><<	incongruent	right	3	2	380
18	1	69	>><>>	incongruent	left	2	2	590
18	1	70	--<--	neutral	left	2	2	429
18	1	71	--<--	neutral	left	2	2	398
18	1	72	>><>>	incongruent	left	2	2	547
18	2	1	<<><<	incongruent	right	3	3	571
18	2	2	--<--	neutral	left	2	2	391
18	2	3	--<--	neutral	left	2	2	400
18	2	4	-->--	neutral	right	3	3	442
18	2	5	>>>>>	congruent	right	3	3	429
18	2	6	>>>>>	congruent	right	3	3	413
18	2	7	--<--	neutral	left	2	2	379
18	2	8	--<--	neutral	left	2	2	417
18	2	9	<<><<	incongruent	right	3	3	648
18	2	10	>>>>>	congruent	right	3	3	419
18	2	11	-->--	neutral	right	3	3	416
18	2	12	>>>>>	congruent	right	3	3	414
18	2	13	>><>>	incongruent	left	2	2	442
18	2	14	-->--	neutral	right	3	3	382
18	2	15	-->--	neutral	right	3	3	451
18	2	16	>><>>	incongruent	left	2	2	531
18	2	17	-->--	neutral	right	3	3	422
18	2	18	>><>>	incongruent	left	2	2	466
18	2	19	-->--	neutral	right	3	3	379
18	2	20	<<<<<	congruent	left	2	2	386
18	2	21	--<--	neutral	left	2	2	548
18	2	22	<<><<	incongruent	right	3	3	490
18	2	23	--<--	neutral	left	2	2	405
18	2	24	--<--	neutral	left	2	2	385
18	2	25	>><>>	incongruent	left	2	3	375
18	2	26	>>>>>	congruent	right	3	3	412
18	2	27	>>>>>	congruent	right	3	3	395
18	2	28	-->--	neutral	right	3	3	403
18	2	29	<<<<<	congruent	left	2	2	383
18	2	30	<<><<	incongruent	right	3	3	498
18	2	31	<<<<<	congruent	left	2	2	401
18	2	32	<<><<	incongruent	right	3	3	442
18	2	33	<<><<	incongruent	right	3	3	491
18	2	34	-->--	neutral	right	3	3	422
18	2	35	<<<<<	congruent	left	2	2	388
18	2	36	<<><<	incongruent	right	3	3	459
18	2	37	<<<<<	congruent	left	2	2	417
18	2	38	-->--	neutral	right	3	3	398
18	2	39	>><>>	incongruent	left	2	2	547
18	2	40	<<><<	incongruent	right	3	3	474
18	2	41	>>>>>	congruent	right	3	3	434
18	2	42	<<<<<	congruent	left	2	2	402
18	2	43	<<><<	incongruent	right	3	3	460
18	2	44	-->--	neutral	right	3	3	481
18	2	45	<<<<<	congruent	left	2	2	473
18	2	46	--<--	neutral	left	2	2	417
18	2	47	>><>>	incongruent	left	2	3	384
18	2	48	<<><<	incongruent	right	3	3	546
18	2	49	>>>>>	congruent	right	3	3	410
18	2	50	>><>>	incongruent	left	2	2	468
18	2	51	<<><<	incongruent	right	3	3	506
18	2	52	<<<<<	congruent	left	2	2	410
18	2	53	>><>>	incongruent	left	2	3	405
18	2	54	<<<<<	congruent	left	2	2	385
18	2	55	-->--	neutral	right	3	3	407
18	2	56	>><>>	incongruent	left	2	2	449
18	2	57	>>>>>	congruent	right	3	3	404
18	2	58	--<--	neutral	left	2	2	352
18	2	59	>>>>>	congruent	right	3	3	400
18	2	60	>><>>	incongruent	left	2	2	536
18	2	61	<<><<	incongruent	right	3	3	477
18	2	62	>><>>	incongruent	left	2	2	437
18	2	63	<<<<<	congruent	left	2	2	358
18	2	64	<<<<<	congruent	left	2	2	360
18	2	65	--<--	neutral	left	2	2	411
18	2	66	--<--	neutral	left	2	2	374
18	2	67	<<<<<	congruent	left	2	2	350
18	2	68	>><>>	incongruent	left	2	2	461
18	2	69	>>>>>	congruent	right	3	3	496
18	2	70	>>>>>	congruent	right	3	3	367
18	2	71	-->--	neutral	right	3	3	417
18	2	72	--<--	neutral	left	2	2	431
19	1	1	--<--	neutral	left	2	2	432
19	1	2	<<<<<	congruent	left	2	2	353
19	1	3	>>>>>	congruent	right	3	3	417
19	1	4	<<<<<	congruent	left	2	2	384
19	1	5	--<--	neutral	left	2	3	343
19	1	6	>><>>	incongruent	left	2	2	609
19	1	7	<<><<	incongruent	right	3	3	481
19	1	8	>><>>	incongruent	left	2	2	678
19	1	9	--<--	neutral	left	2	2	437
19	1	10	>>>>>	congruent	right	3	3	375
19	1	11	<<<<<	congruent	left	2	2	335
19	1	12	<<><<	incongruent	right	3	2	349
19	1	13	-->--	neutral	right	3	3	429
19	1	14	<<<<<	congruent	left	2	2	382
19	1	15	-->--	neutral	right	3	3	420
19	1	16	--<--	neutral	left	2	2	385
19	1	17	>><>>	incongruent	left	2	3	352
19	1	18	>><>>	incongruent	left	2	2	614
19	1	19	--<--	neutral	left	2	2	381
19	1	20	>><>>	incongruent	left	2	3	418
19	1	21	<<<<<	congruent	left	2	2	446
19	1	22	-->--	neutral	right	3	3	433
19	1	23	<<><<	incongruent	right	3	3	605
19	1	24	<<><<	incongruent	right	3	3	494
19	1	25	-->--	neutral	right	3	3	427
19	1	26	-->--	neutral	right	3	3	443
19	1	27	--<--	neutral	left	2	2	444
19	1	28	--<--	neutral	left	2	2	384
19	1	29	<<<<<	congruent	left	2	2	390
19	1	30	>>>>>	congruent	right	3	3	493
19	1	31	>>>>>	congruent	right	3	3	394
19	1	32	-->--	neutral	right	3	3	418
19	1	33	-->--	neutral	right	3	3	415
19	1	34	-->--	neutral	right	3	3	413
19	1	35	<<<<<	congruent	left	2	2	349
19	1	36	>>>>>	congruent	right	3	3	412
19	1	37	>><>>	incongruent	left	2	2	488
19	1	38	>>>>>	congruent	right	3	3	403
19	1	39	<<><<	incongruent	right	3	3	492
19	1	40	>>>>>	congruent	right	3	3	394
19	1	41	>><>>	incongruent	left	2	3	450
19	1	42	--<--	neutral	left	2	2	451
19	1	43	<<><<	incongruent	right	3	3	485
19	1	44	>>>>>	congruent	right	3	3	447
19	1	45	>>>>>	congruent	right	3	3	418
19	1	46	>><>>	incongruent	left	2	3	399
19	1	47	<<<<<	congruent	left	2	2	426
19	1	48	-->--	neutral	right	3	3	348
19	1	49	-->--	neutral	right	3	3	458
19	1	50	>><>>	incongruent	left	2	2	462
19	1	51	>><>>	incongruent	left	2	3	358
19	1	52	<<><<	incongruent	right	3	3	453
19	1	53	--<--	neutral	left	2	2	363
19	1	54	>><>>	incongruent	left	2	2	586
19	1	55	<<><<	incongruent	right	3	3	457
19	1	56	>><>>	incongruent	left	2	2	572
19	1	57	>>>>>	congruent	right	3	3	390
19	1	58	<<><<	incongruent	right	3	3	493
19	1	59	--<--	neutral	left	2	2	411
19	1	60	<<<<<	congruent	left	2	2	375
19	1	61	<<><<	incongruent	right	3	3	537
19	1	62	--<--	neutral	left	2	2	461
19	1	63	-->--	neutral	right	3	3	403
19	1	64	>>>>>	congruent	right	3	3	430
19	1	65	--<--	neutral	left	2	2	367
19	1	66	<<<<<	congruent	left	2	2	386
19	1	67	<<<<<	congruent	left	2	2	411
19	1	68	<<><<	incongruent	right	3	3	499
19	1	69	>>>>>	congruent	right	3	3	417
19	1	70	<<<<<	congruent	left	2	2	414
19	1	71	-->--	neutral	right	3	3	349
19	1	72	<<><<	incongruent	right	3	3	726
19	2	1	<<><<	incongruent	right	3	3	484
19	2	2	--<--	neutral	left	2	2	353
19	2	3	-->--	neutral	right	3	3	354
19	2	4	-->--	neutral	right	3	3	434
19	2	5	>><>>	incongruent	left	2	2	465
19	2	6	>><>>	incongruent	left	2	2	578
19	2	7	<<><<	incongruent	right	3	3	494
19	2	8	<<><<	incongruent	right	3	3	474
19	2	9	>><>>	incongruent	left	2	2	559
19	2	10	-->--	neutral	right	3	3	378
19	2	11	>><>>	incongruent	left	2	3	478
19	2	12	--<--	neutral	left	2	2	453
19	2	13	-->--	neutral	right	3	3	458
19	2	14	>>>>>	congruent	right	3	3	462
19	2	15	-->--	neutral	right	3	3	498
19	2	16	<<<<<	congruent	left	2	2	369
19	2	17	>><>>	incongruent	left	2	3	466
19	2	18	>>>>>	congruent	right	3	3	457
19	2	19	<<<<<	congruent	left	2	2	399
19	2	20	<<<<<	congruent	left	2	2	379
19	2	21	-->--	neutral	right	3	3	447
19	2	22	>><>>	incongruent	left	2	2	574
19	2	23	<<><<	incongruent	right	3	3	569
19	2	24	>>>>>	congruent	right	3	3	450
19	2	25	<<><<	incongruent	right	3	3	593
19	2	26	>><>>	incongruent	left	2	2	573
19	2	27	-->--	neutral	right	3	3	380
19	2	28	<<><<	incongruent	right	3	3	479
19	2	29	<<<<<	congruent	left	2	2	426
19	2	30	>>>>>	congruent	right	3	3	348
19	2	31	--<--	neutral	left	2	2	396
19	2	32	>>>>>	congruent	right	3	3	389
19	2	33	>>>>>	congruent	right	3	3	366
19	2	34	--<--	neutral	left	2	2	386
19	2	35	--<--	neutral	left	2	2	379
19	2	36	<<><<	incongruent	right	3	3	556
19	2	37	>><>>	incongruent	left	2	3	437
19	2	38	--<--	neutral	left	2	2	421
19	2	39	>>>>>	congruent	right	3	3	433
19	2	40	>>>>>	congruent	right	3	3	434
19	2	41	<<<<<	congruent	left	2	2	433
19	2	42	-->--	neutral	right	3	3	386
19	2	43	<<<<<	congruent	left	2	2	379
19	2	44	>><>>	incongruent	left	2	2	464
19	2	45	-->--	neutral	right	3	3	390
19	2	46	--<--	neutral	left	2	2	398
19	2	47	>>>>>	congruent	right	3	3	313
19	2	48	<<<<<	congruent	left	2	2	370
19	2	49	<<<<<	congruent	left	2	2	358
19	2	50	>><>>	incongruent	left	2	2	516
19	2	51	<<><<	incongruent	right	3	3	655
19	2	52	<<<<<	congruent	left	2	2	413
19	2	53	<<<<<	congruent	left	2	2	347
19	2	54	--<--	neutral	left	2	2	396
19	2	55	>><>>	incongruent	left	2	3	420
19	2	56	<<><<	incongruent	right	3	3	621
19	2	57	-->--	neutral	right	3	3	449
19	2	58	>><>>	incongruent	left	2	2	545
19	2	59	<<<<<	congruent	left	2	2	376
19	2	60	<<><<	incongruent	right	3	3	523
19	2	61	--<--	neutral	left	2	2	413
19	2	62	--<--	neutral	left	2	2	520
19	2	63	-->--	neutral	right	3	3	443
19	2	64	>>>>>	congruent	right	3	3	444
19	2	65	--<--	neutral	left	2	2	384
19	2	66	-->--	neutral	right	3	3	500
19	2	67	>>>>>	congruent	right	3	3	433
19	2	68	--<--	neutral	left	2	2	370
19	2	69	<<><<	incongruent	right	3	3	499
19	2	70	<<<<<	congruent	left	2	2	401
19	2	71	<<><<	incongruent	right	3	3	521
19	2	72	>>>>>	congruent	right	3	3	365
20	1	1	--<--	neutral	left	2	2	426
20	1	2	-->--	neutral	right	3	3	363
20	1	3	>><>>	incongruent	left	2	2	539
20	1	4	--<--	neutral	left	2	2	416
20	1	5	>><>>	incongruent	left	2	2	570
20	1	6	-->--	neutral	right	3	3	342
20	1	7	-->--	neutral	right	3	3	389
20	1	8	<<><<	incongruent	right	3	2	523
20	1	9	-->--	neutral	right	3	3	507
20	1	10	>>>>>	congruent	right	3	3	458
20	1	11	>>>>>	congruent	right	3	3	478
20	1	12	<<<<<	congruent	left	2	2	531
20	1	13	>><>>	incongruent	left	2	2	485
20	1	14	>><>>	incongruent	left	2	2	463
20	1	15	--<--	neutral	left	2	2	389
20	1	16	>><>>	incongruent	left	2	2	491
20	1	17	<<<<<	congruent	left	2	2	391
20	1	18	>>>>>	congruent	right	3	3	399
20	1	19	>>>>>	congruent	right	3	3	457
20	1	20	<<<<<	congruent	left	2	2	414
20	1	21	<<<<<	congruent	left	2	2	380
20	1	22	--<--	neutral	left	2	2	418
20	1	23	<<<<<	congruent	left	2	2	384
20	1	24	<<<<<	congruent	left	2	2	359
20	1	25	>>>>>	congruent	right	3	3	410
20	1	26	<<<<<	congruent	left	2	2	327
20	1	27	<<><<	incongruent	right	3	2	355
20	1	28	<<><<	incongruent	right	3	3	685
20	1	29	<<><<	incongruent	right	3	3	510
20	1	30	-->--	neutral	right	3	3	492
20	1	31	--<--	neutral	left	2	2	391
20	1	32	--<--	neutral	left	2	2	384
